accX,accY,accZ,acc,acc_time
-2.5163284984231,0.3130067163705826,2.758945555686951,3.7472206894862925,0.02481895824894309
-1.628115537017584,-0.5401020473241807,1.1080463428795337,2.042115844258238,0.03489095834083855
-0.9677755131572485,-0.9895447701215745,0.001466408595442772,1.3841208207002393,0.04496295819990337
-0.7758479683846236,-0.7820890671014786,-0.14288716636598112,1.1108645827634926,0.05503495829179883
-0.41919091008603576,-0.036291328668594365,-0.5993056905269624,0.7322604661821435,0.06510695815086365
-0.23174964152276517,0.4632035601139069,-0.5348285166174174,0.7445179491693367,0.07517912494949996
0.06649175897240639,0.5024336993694306,-0.371421058550477,0.6283425650137454,0.08525112480856478
-0.13900180120021105,0.27686273753643037,0.4439884765818715,0.5413873322405691,0.09532312490046024
-0.7679396823048592,-0.10040487885475159,0.8058854806423188,1.117704747805263,0.1053951249923557
-1.351160559654236,-0.1196392947435379,0.8506073248386383,1.6010875178705952,0.11546712485142052
-1.9354340820014477,0.13006955802440645,1.1940751111507417,2.27785832455996,0.12553912494331598
-2.0548022121191027,0.19942864537239074,0.9958217561244965,2.29208308869803,0.1356111248023808
-1.7949966797232628,0.06675005972385407,0.9145782029628754,2.0156691047950996,0.14568312489427626
-1.5746376335620882,0.01683705747127533,1.0112279999256135,1.871456446559166,0.15575512498617172
-1.29886847153306,-0.007786152362823487,0.9600449824333191,1.6151799586444344,0.16582712484523654
-0.982671148851514,0.058266334533691407,0.8761374378204346,1.3178218250111442,0.175899124937132
-0.7492636755108834,0.19488068103790285,0.8317629182338715,1.136311615460654,0.18597112479619682
-0.6095125536248088,0.428113249540329,0.883342376947403,1.1554567332311942,0.19604312488809228
-0.5462492616847158,0.6766696161031723,1.014907068014145,1.3365277333274383,0.20611512497998774
-0.4867354236915708,0.8087003302574158,1.0362423884868623,1.4016796654484305,0.21618712483905256
-0.4707337871566415,0.798309828042984,1.0129266160726549,1.3729199574153086,0.22625912493094802
-0.4432529333978892,0.7078534018993378,0.921925814151764,1.2439762089146609,0.23633112479001284
-0.49914690636098386,0.5483700102567673,0.6863414955139161,1.0104068243747302,0.2464031248819083
-0.597823677174747,0.4283190715312958,0.5579617828130722,0.9231314787765117,0.25647512497380376
-0.6414520554989577,0.2793559902906418,0.3915371249243617,0.8017492307505747,0.2665471248328686
-0.5442569325864315,0.11868210554122925,0.00841180443763733,0.5571102308322725,0.27661912492476404
-0.3604827453196049,-0.06498653948307037,-0.43957320749759676,0.5721849917088607,0.28669112478382885
-0.22102347258478405,-0.24801900744438174,-0.8411833673715592,0.9044082380372752,0.2967631248757243
-0.22190424598753453,-0.2992002707719803,-1.0749111950397492,1.1376275197265158,0.3068351249676198
-0.3074520442262292,-0.20666223585605623,-1.2519531905651093,1.3056120521020278,0.3169071248266846
-0.594331171810627,-0.18346457719802858,-1.4349915057420732,1.5639978946354587,0.32697912491858006
-0.766514569669962,-0.0855389177799225,-1.5405086052417756,1.7227966376781818,0.3370511250104755
-0.916317968890071,0.05932117223739624,-1.633210946917534,1.873642340127302,0.34712312486954033
-1.1024588166922331,0.11306000769138337,-1.6809967321157457,2.013441834577158,0.3571951249614358
-1.295712144523859,0.1624520230293274,-1.6573570239543916,2.1099983237206366,0.3672671248205006
-1.4736319532990456,0.1608779525756836,-1.669966544508934,2.2329937548475174,0.3773391249123961
-1.6270848190784455,0.16429389595985414,-1.660118079185486,2.330319619615239,0.38741112500429153
-1.7043296076357366,0.12607064723968506,-1.609758934378624,2.3477557467443284,0.39748312486335635
-1.782443292438984,0.18963105082511902,-1.359398701786995,2.249673055494494,0.4075551249552518
-1.7584417878091336,0.23366701662540437,-1.0815507084131242,2.0776115446928305,0.41762712481431663
-1.5643360090255738,0.24976907908916474,-0.8912922513484955,1.8176725830899743,0.4276991249062121
-1.3802551352977754,0.27570615828037265,-0.8152919695526362,1.6265974055821615,0.43777112499810755
-1.2219452067464591,0.3656258100271225,-0.7952827975898982,1.5030991482237794,0.44784312485717237
-1.0515365119278433,0.33929287433624267,-0.8564815838634968,1.3980019291796593,0.45791512494906783
-0.9598180373758078,0.3448120611906052,-0.9270795500278474,1.3782679400226565,0.46798712480813265
-0.9190437215566636,0.3369329380989075,-0.985825356245041,1.3892504453569006,0.4780591249000281
-0.9153995174914599,0.25029123544692994,-0.9768078533560038,1.3618941080506635,0.48813112499192357
-0.955341189801693,0.1714321768283844,-0.8797662198543549,1.3099825883501863,0.4982031248509884
-0.910673797801137,0.07456252455711365,-0.7961750826984645,1.2119327944980214,0.5082751249428838
-0.8864121651649476,-0.015535467267036439,-0.7389097914844752,1.154103789633864,0.5183471248019487
-0.8948916511237621,-0.03403430342674255,-0.6919180581718684,1.1316978396573378,0.5284191248938441
-0.9808209436386824,-0.08424785256385804,-0.5435385290533304,1.1245183665495888,0.5384911249857396
-1.196250640824437,-0.0920211410522461,-0.3311763542890549,1.2446530696196525,0.5485631248448044
-1.4366632246971132,-0.004028146862983703,-0.1175278651714325,1.4414680871444958,0.5586351249366999
-1.7733187124133112,0.025506724119186402,0.06430343851447105,1.7746675127964902,0.5687071247957647
-2.157387225329876,-0.009257311820983887,0.15678373217582703,2.16309650189576,0.5787791248876601
-2.697716436982155,-0.1303952479362488,0.22587077781558038,2.710294172837898,0.5888511249795556
-3.160697802901268,-0.3676775979995728,0.10243313178420067,3.1836598379573715,0.5989231248386204
-3.5240496307611466,-0.748654688000679,-0.17047732651233674,3.606725961420962,0.6089951249305159
-3.4932687181234363,-1.1222742265462875,-0.38247280776500703,3.688998675151493,0.6190671247895807
-3.404728424549103,-1.410407472252846,-0.6896798171103001,3.7492776814806046,0.6291391248814762
-3.374414119720459,-1.5311255782842637,-1.0020754994452,3.838641881503596,0.6392111249733716
-3.4104034397006036,-1.647185207605362,-1.2604601584374906,3.9915949870551612,0.6492831248324364
-3.700402239561081,-1.8355041432380677,-1.3188833445310593,4.336070279743423,0.6593551249243319
-4.029177142381668,-2.1627669560909273,-1.213296809345484,4.73116460278203,0.6694271247833967
-4.062491653561592,-2.4865775728225707,-1.1244609390199185,4.894008465900252,0.6794991248752922
-3.762146497964859,-2.516595423817635,-1.274978794902563,4.7024004217825075,0.6895711249671876
-3.153166881501675,-2.1870761704444885,-1.6100162118673325,4.161479996395605,0.6996431248262525
-2.6763144582509995,-2.027412684559822,-1.8636706195771695,3.840094979454617,0.7097151249181479
-2.225621893107891,-1.8795149660110475,-1.9929585510492325,3.529568402048743,0.7197871250100434
-1.7391243414580824,-1.903134208917618,-2.1170657032728197,3.3359317265463533,0.7298591248691082
-1.3167907722294332,-2.002653234601021,-2.371196805238724,3.3715177895216346,0.7399321249686182
-0.9431983501464128,-2.029321215748787,-2.7758001548051836,3.565506166566471,0.750004124827683
-0.8067772541195155,-1.8390826392173767,-3.070946550965309,3.6693088191812233,0.7600761249195784
-0.8060847976058721,-1.4159728521108628,-3.120041527748108,3.5198595076677446,0.7701481250114739
-0.49913798935711384,-0.7246314024925232,-2.6787188333272933,2.819532583589003,0.7802201248705387
-0.5046541795134545,0.012504855394363404,-2.0422885859012605,2.103752571100366,0.7902921249624342
-0.74493856318295,0.8393987971544267,-1.4075294727087022,1.8001841628358508,0.800364124821499
-0.8213355785608292,1.6060775274038315,-0.6367155915498733,1.912977757624004,0.8104361249133945
-0.9251408325880767,2.0606897735595706,0.02790523370727897,2.2590056673330885,0.8205081250052899
-1.1567909252643587,1.6431687551736833,0.1634776246547699,2.0161581625744964,0.8305801248643547
-1.8201367834210396,0.4604635548591614,0.3987311370670796,1.9193517435276501,0.8406521249562502
-2.3114230585098268,-0.737587662935257,1.6853055453300476,2.9541440210398386,0.850724124815315
-2.0097328971326354,-1.6665663886070252,3.0531809556484224,4.017260732562178,0.8607961249072105
-1.3854837155342103,-2.36228389441967,3.726801248788834,4.624824090905411,0.8708681249991059
-0.6398803970217705,-2.8696865576505663,3.9993773925304414,4.963825882274346,0.8809401248581707
0.02822969935834408,-3.0724007534980777,4.03207502245903,5.0693266113715145,0.8910121249500662
0.6166312828660011,-3.211220669746399,3.490697697401047,4.783005618171115,0.901084124809131
0.6629611113667488,-3.426521582007408,2.994552970826626,4.598686234375396,0.9111561249010265
0.4575271197035909,-3.66960787832737,2.6540593707561495,4.551855027287786,0.921228124992922
0.31301819153130056,-4.033202365636826,1.9445769345760346,4.4884386110197765,0.9313001248519868
-0.02399638831615448,-4.3584829723834995,1.921528379917145,4.763320371551354,0.9413721249438822
0.14050479143857958,-3.624827561974526,1.197260674238205,3.82001957750804,0.951444124802947
0.30571670025587083,-1.7307799261808396,0.7086448225378991,1.8950565527697745,0.9615161248948425
0.18435229416936638,0.12897846758365633,1.03439320653677,1.0585794817561684,0.971588124986738
0.2751737327501178,1.1026837152242661,1.4690097293257713,1.8573156823411037,0.9816601248458028
0.5924330925196409,1.6100185507535936,1.8976799261569979,2.5581879925099944,0.9917321249376982
0.6141664621978998,1.8285652524232865,2.145553337931633,2.8851777157686653,1.001804124796763
0.36377582408487796,1.9264312702417374,2.628038676381111,3.278728042047527,1.0118761248886585
0.080489262342453,1.8303913378715515,2.855197157263756,3.3924860763096247,1.021948124980554
-0.16409443281590938,1.7872406405210497,3.249718737602234,3.712388444591207,1.0320201248396188
-0.12312021531164646,1.9267470198869707,3.507106738686562,4.003412337319553,1.0420921249315143
0.2241062343120575,2.21880784034729,3.5350137448310854,4.1796715197236285,1.052164124790579
0.5879221849143506,2.4602569162845613,3.5048614078760147,4.322333869341785,1.0622361248824745
0.993414091989398,2.612942335009575,3.4222288486361507,4.418822184325357,1.07230812497437
1.3883548445999623,2.737610819935799,3.2760706767439842,4.489396535724543,1.0823807083070278
1.6028080567717553,2.8382367235422135,3.0460818511247636,4.46129981165442,1.0924527081660926
1.5780829592049124,2.9303853338956833,2.8892832085490228,4.407432528178643,1.102524708257988
1.4951888832449913,2.9794282704591755,2.7286324203014374,4.307901751492348,1.112596708117053
1.5452340325713159,2.9501623713970186,2.441409586071968,4.129368837968775,1.1226687082089484
1.440155766606331,2.826528258919716,2.140489649176598,3.8268794818746703,1.1327407083008438
1.2525137923657894,2.6009608054161073,1.7308486309647562,3.3659508158453395,1.1428127081599087
1.2288135655224324,2.3289009708166124,1.2348316660523415,2.90836238357054,1.1528847082518041
1.1549848665297031,2.1054811996221545,0.7012632974982262,2.50176164657888,1.1629567083436996
0.9859247589111328,1.7749427765607835,0.15919453918933868,2.0366178806067143,1.1730287082027644
0.8049923184514046,1.3917121696472168,-0.36886984527111055,1.6495273137054336,1.1831007082946599
0.7247324131429196,0.9533060663938523,-0.8894538867473603,1.491696263832978,1.1931727081537247
0.6973597694188357,0.48230232059955597,-1.4414763602614404,1.6723576990740283,1.2032447082456201
0.6083255688473582,0.05685364723205567,-2.0279585221409797,2.1179962470319147,1.2133167083375156
0.3869444659352303,-0.34133706092834476,-2.6511535969376565,2.700898443747298,1.2233887081965804
-0.015413644183427095,-0.989017351269722,-3.350872352421284,3.493814308712033,1.2334607082884759
-0.6793669366836548,-1.9583114594221116,-4.0982926931977275,4.59266003595746,1.2435327081475407
-1.3778868667781354,-2.9539776796102526,-4.639219782650471,5.669825089102019,1.2536047082394361
-2.0247630187869072,-3.481542127132416,-4.829611556231976,6.288556960808594,1.2636767083313316
-2.1243513339757922,-3.1670110416412354,-4.478163489997387,5.881902393884806,1.2737487081903964
-1.7206762298941614,-2.1306154561042785,-3.650660268366337,4.563723184521801,1.283820708282292
-1.071791193857789,-0.9144273447990418,-2.7172116386890415,3.0607438346870057,1.2938927081413567
-0.02747062113136053,0.046339768767356876,-1.9788717314600945,1.9796048440955654,1.3039647082332522
1.2165343395620585,-0.06822063446044922,-1.381806693971157,1.8422810843634527,1.3140367083251476
2.009071284681559,-1.3186705058813095,-0.6267045736312866,2.4835494665143374,1.3241087081842124
1.8611840911209585,-2.372188493013382,0.060599665939807895,3.015784605527866,1.334180708276108
1.7659339714050293,-2.7082367473840714,1.1616221871972086,3.435467242899082,1.3442527081351727
2.1896792046725753,-2.5879636144638063,2.303705172389746,4.098695915832176,1.3543247082270682
2.8404039940238,-1.859781782627106,3.0613047847151758,4.571462579216639,1.3643967083189636
3.711851964890957,-0.591028956770897,3.615619659125805,5.215349054134686,1.3744687081780285
3.774487923681736,0.6647418808937073,3.525686266422272,5.207600647464433,1.384540708269924
3.3828896588087085,2.045020989775658,3.145176076591015,5.051552815230022,1.3946127081289887
2.9897708255052566,3.2752447575330734,3.1594260334968567,5.44499133809485,1.4046847082208842
2.2373869295418265,3.8663304322957996,3.3277416443824768,5.570303020118261,1.4147567083127797
1.7048276442289354,3.7400071853399277,2.806931315660477,4.977243660275929,1.4248287081718445
0.5885129364207388,2.971960206627846,2.923675653934479,4.2103175979399925,1.43490070826374
-1.0189708828926087,1.6681270104646684,3.3865891921520235,3.910234742266202,1.4449727081228048
-2.440033882409334,0.0938676917552948,3.9692560458183292,4.660211373760465,1.4550447082147002
-3.517499287426472,-1.4868761891126634,3.911521807909012,5.466589877843748,1.4651177083142102
-4.288237447142601,-2.1798478424549104,3.302907350063324,5.835230413825468,1.4751887081656605
-4.516640507876874,-1.898401472568512,2.087053699493408,5.325388509114962,1.4852617082651705
-3.9575262388587,-1.0899362003803255,1.246635732650757,4.289997144763185,1.4953337081242353
-2.250325648337603,-0.12597241401672363,0.5508229172229767,2.3201811262910668,1.5054057082161307
-1.0319133292883635,0.535777446627617,-0.1691026278398931,1.1749460797075588,1.5154777083080262
-0.3581762745603919,0.41735144913196565,-0.5555006897449494,0.7816991058314109,1.525549708167091
0.45731545049697164,0.06416442096233368,-0.7952061259746552,0.9195690713417338,1.5356217082589865
0.8078508760035038,-0.23688473939895632,-0.761803321838379,1.1353773464288113,1.5456937081180513
1.2471371313929558,-0.36409033119678497,-1.9759694659709932,2.3648188353909325,1.5557657082099468
2.3321689796447753,-0.11048255503177644,-3.637225998044014,4.322109612843128,1.5658377083018422
2.201799167096615,0.4932734513282776,-3.3030318957567215,4.000157243709165,1.575909708160907
1.1291664127260448,0.8167998933792114,-1.869625570178032,2.3318830644173447,1.5859817082528025
0.2946123991906643,0.7815172094106675,-0.8147060054540635,1.1667525400378749,1.596053708344698
-0.41595652274787426,0.6488263446092606,-0.1088512184098363,0.7783598409635634,1.6061257082037628
-0.9888186921179295,0.5525940388441086,0.32654652893543246,1.178878794960549,1.6161977082956582
-1.2787259830534459,0.6215309572219849,0.5324614906311036,1.5182081904423963,1.626269708154723
-1.3387716253101827,0.7598503518104553,0.40015018321573737,1.5905351901198943,1.6363417082466185
-1.1584930497407915,0.8650862002372742,0.10239709831774235,1.4494707468184993,1.646413708338514
-0.8784082771092654,0.9653542542457582,-0.2059880518913269,1.3213406127893126,1.6564857081975788
-0.30396407045423984,1.1288809955120087,-0.2965959940105677,1.2061242232118592,1.6665577082894742
-0.04861291039735079,1.1694250041246415,-0.08431509554386139,1.1734679759864728,1.676629708148539
-0.12436848621815444,0.9834841310977936,-0.23012433484196665,1.0176766509907924,1.6867017082404345
-0.15088827699422838,0.6168578624725342,-0.5533150005340577,0.8422816538691053,1.69677370833233
-0.21512132965028288,0.3114478486776352,-0.8491595542430879,0.9297036611086097,1.7068457081913948
-0.2897101666778326,0.3145316702127457,-1.0230978477001191,1.1088694053908843,1.7169177082832903
-0.2557403653487563,0.423709711432457,-1.109622021317482,1.2149872773916548,1.726989708142355
-0.16468595176935197,0.37102220535278324,-1.1521382957696915,1.221557035980764,1.7370617082342505
-0.005971450712531805,-0.00042158424854278566,-1.2730559380352497,1.273070012734453,1.747133708326146
-0.029594366401433946,-0.5468099731206895,-1.3487475599348546,1.4556774895756188,1.7572057081852108
-0.2595703281462193,-0.9799886655807496,-1.3533969734609128,1.6909872582884333,1.7672777082771063
-0.7404288981109858,-1.2358873808383943,-1.4464842081069946,2.0415604658144106,1.777349708136171
-1.3686637611687185,-1.4440821719169616,-1.4177995222806932,2.4431064847370596,1.7874217082280666
-2.1365031637251377,-1.6654840689897539,-1.4390306161344053,3.0674569380577057,1.797493708319962
-2.790918715596199,-1.778446428179741,-1.5152022944390775,3.639771554375887,1.8075657081790268
-3.4818964684009552,-1.7510533922910692,-1.6215340572595598,4.221275127040377,1.8176377082709223
-4.2505571123957635,-1.7909308183193207,-1.6092771238088608,4.885124545286296,1.8277097081299871
-4.635776649713517,-2.077499349117279,-1.4788649189472198,5.290885572388101,1.8377817082218826
-4.284789051711559,-2.2489315259456637,-1.6421180105209352,5.1101528144016175,1.847853708313778
-3.4028655016422276,-2.1971415674686434,-2.0169982087612155,4.524953752682046,1.8579257081728429
-2.433927488923073,-2.0858047342300416,-2.2952473211288456,3.9424287787886505,1.8679977082647383
-1.576064061820507,-1.9597481203079226,-2.694133263230324,3.6855046685707324,1.8780697081238031
-1.3070592512190342,-2.104983016848564,-3.059393037557602,3.9369078152369883,1.8881417082156986
-1.4086702644824982,-2.3611050957441333,-3.020623658895493,4.084524020723259,1.898213708307594
-1.2467528231441976,-2.682921227216721,-3.4186003589630127,4.520983004587624,1.9082857081666589
-0.9387387518584729,-2.583194625377655,-3.8425802117586136,4.724356845182176,1.9183577082585543
-1.380451455563307,-2.3135713255405426,-3.618105018138886,4.510980206320137,1.9284297081176192
-1.945568768531084,-2.0158199948072433,-2.745913281440735,3.922857100856576,1.9385017082095146
-1.986797193735838,-1.485791530609131,-1.6532791757583618,2.9813204447799087,1.94857370830141
-1.2532808008790017,-0.5871142458915711,-0.48127434354275467,1.4652784367939256,1.958645708160475
-0.2577132159098983,0.6180319833755493,0.3345730018615723,0.7485444059669412,1.9687177082523704
0.5284386062622071,1.379893777370453,0.3430082317069173,1.5169076585055359,1.9787897083442658
1.2517589168250562,1.3943504333496095,0.26551738500595096,1.8925149929587561,1.9888617082033306
2.0571887531876567,0.6914735966920853,0.5286842624098063,2.2337565557786,1.998933708295226
2.142994011640549,-0.9713587599992752,0.8216182914376259,2.492191363314516,2.009005708154291
1.3667087446153166,-2.6883778488636016,1.4376595902442932,3.340977902993351,2.0190777082461864
0.8184554594010115,-3.3298747086524965,2.9439187145233157,4.519357510981786,2.029149708338082
0.8132493178546429,-3.500735612511635,4.675293302536011,5.897023973703714,2.0392217081971467
0.32186736769974233,-3.5022669982910157,4.804947123527527,5.954577196544166,2.049293708289042
-0.4593878499045968,-3.5656016993522646,3.05447903752327,4.717456397862391,2.059365708148107
-1.949821594655514,-3.9584036135673526,1.9198861894011499,4.812143638664718,2.0694377082400024
-2.882238483130932,-4.655583508014679,1.5370572862029077,5.687205075853043,2.079509708331898
-2.7285821342468264,-4.39146828532219,1.7407324719429016,5.455300514471959,2.0895817081909627
-1.6653295563161374,-2.86958890914917,2.504967943131924,4.157249984637754,2.099653708282858
-0.2245097835548222,-1.0017829924821855,3.1035009241104126,3.2688976418500135,2.109725708141923
0.5224978351593018,0.5515807163715363,3.342307058572769,3.427573740739133,2.1197977082338184
1.3078952568769455,1.204222953915596,3.3399670028686526,3.783665221177717,2.129869708325714
1.679059695750475,1.6080147099494935,3.165662088990212,3.927641688211579,2.1399417081847787
1.4079305917024614,2.1945956897735597,2.9839294570684434,3.9626195625350036,2.150013708276674
1.0808031418919564,2.5128929668664934,2.9178477340936664,3.999575214170394,2.160085708135739
1.0272974641621113,2.4259045243263246,2.9105764290690423,3.9257875630850347,2.1701577082276344
1.0701960003376008,2.315928922891617,3.0694531720876697,3.9912891439563207,2.18022970831953
1.2070236240327359,2.247270331978798,3.1623016941547397,4.062915453072972,2.1903017081785947
1.3694524043798448,2.27843365252018,3.162296431660652,4.131195773440407,2.20037370827049
1.5028946363925935,2.389230203032494,3.2819860124588014,4.3288041578657195,2.210445708129555
1.4091259087622166,2.515669224858284,3.415593720674515,4.4699561452384735,2.2205177082214504
1.299626416862011,2.7481767386198044,3.535761603713036,4.662951246623532,2.230589708313346
1.0339891639351846,3.1549751329422,3.5610853099823,4.868709301816115,2.2406617081724107
0.7558167962729931,3.4389977860450744,3.557445710599423,5.005335631684805,2.250733708264306
0.7708958883583547,3.733505081534386,3.4612657374143603,5.149145673753023,2.260805708123371
0.8851161298155785,3.8892024010419846,3.0560273802280427,5.024801411820563,2.2708777082152665
1.0193584802001716,3.6104668003320697,2.394007670581341,4.450374698186479,2.2809507083147764
0.9802332253754139,2.937028940320015,1.5924377274513246,3.4817889206868267,2.2910227081738412
0.832069239243865,2.3607057309150696,0.7457439440488816,2.611781919869402,2.3010947082657367
0.6769150529801846,1.7673489975929262,-0.2568026947975159,1.9098911205351872,2.3111667081248015
0.6518346639722586,1.2133639061450958,-1.2841932758688928,1.883160313854981,2.321238708216697
0.7915720814466477,0.851922363638878,-2.1553348526358604,2.449046018510203,2.3313107083085924
0.8683789866417647,0.18567014694213868,-2.7624939385056497,2.901711258582933,2.3413827081676573
0.6742577127367259,-0.642827686071396,-3.1970762550830845,3.330037158648676,2.3514547082595527
0.5375203554332256,-1.2114156138896943,-3.573477021753788,3.811324434771085,2.3615267081186175
0.359768544472754,-1.6082351499795915,-3.923210684359074,4.255283278125102,2.371598708210513
-0.03411625580862165,-2.21551118016243,-4.370613313615323,4.900195347686318,2.3816707083024085
-0.8738554157316685,-2.9454196947813034,-5.074439445734025,5.9320364255819085,2.3917427081614733
-1.9176949453353882,-3.234421252012253,-5.777742544412614,6.893572633137984,2.4018147082533687
-2.6766989126801493,-2.8632674843072894,-5.8988149917125705,7.082304431630107,2.411886708345264
-2.5468351766467094,-1.9117284464836122,-5.309275320768356,6.191080640875198,2.421958708204329
-1.4354496350884438,-0.8257595819234849,-4.179520458877087,4.495640756131002,2.4320307082962245
0.0017061444371938707,-0.45811297416687013,-2.8403262260556223,2.8770337986280645,2.4421027081552893
1.4684195990860462,-1.523594949245453,-1.4300280967354775,2.55393383739657,2.4521747082471848
2.2644609998166563,-2.9584028524160386,-0.3392238771915436,3.7409896946838637,2.46224670833908
2.328085138052702,-3.663509232401848,0.7954180875420571,4.412932158996386,2.472318708198145
3.136837654709816,-3.6168572223186493,2.5535439795255663,5.426047686301256,2.4823907082900405
3.8930899223685267,-2.8615378779172898,3.961309095025063,6.247921087588339,2.4924627081491053
4.532799580693245,-1.5050475811958315,5.334452261924744,7.160155109713078,2.5025347082410008
4.354994523525238,0.20486070871353151,5.5497210144996645,7.057432149775767,2.5126067083328962
3.5511587843298913,2.2579338991642,4.923267871141434,6.476693657687671,2.522678708191961
3.075301557183266,4.307919175028801,4.384683176279069,6.873215684273217,2.5327507082838565
2.408676580488682,4.998972356915474,4.321994007825852,7.033568063101563,2.5428227081429213
1.864096735417843,4.152990764379502,4.274495905637742,6.244477894534556,2.552894708234817
1.0040639182180167,2.6877896189689636,4.157242859601975,5.051240004337178,2.5629667083267123
-0.25636481143534184,1.3715533089637757,4.4324350476264955,4.6468658090480135,2.573038708185777
-1.2769532534480095,0.32765633046627046,4.2403282856941225,4.4405351313601535,2.5831107082776725
-2.654692916572094,-0.5301758140325546,3.2837273132801057,4.255742701699072,2.5931827081367373
-4.002635461091995,-1.3484188002347948,2.4839966118335726,4.899955414370466,2.603254708228633
-3.7814428943395617,-1.3824150967597961,1.2888058519363403,4.227458147266027,2.6133267083205283
-2.8519139456748963,-1.115860415697098,0.710806245803833,3.1438516408902624,2.623398708179593
-1.9412549851834775,-0.9145150530338287,0.3736592996120453,2.178171244854668,2.6334707082714885
-1.4446475976705553,-0.8463371032476426,0.386971070766449,1.7184410910470715,2.6435427081305534
-0.38679112270474436,-0.7866276758909226,-0.8207339000701904,1.2008307989909222,2.653614708222449
0.985139404758811,-0.37889957427978516,-2.054289411306381,2.3095821093010453,2.6636867083143443
1.3788702222704887,0.26396845757961274,-2.6948600721359255,3.0386235773543375,2.673758708173409
1.9494663763046265,1.0045189046859742,-3.5553719955682754,4.177337358783097,2.6838307082653046
1.1539889395236969,1.3440415745973588,-2.5787443095445632,3.1285876111749915,2.6939027081243694
0.29264729619026186,1.1664727449417114,-1.8058359557390213,2.169641584156053,2.703974708216265
-0.6795400142669679,0.9859639352560043,-1.0822349057346583,1.6140421010016937,2.7140467083081603
-1.2415954327583314,0.6839634329080582,-0.6024456453323365,1.5402291880696262,2.724118708167225
-1.5808912307024003,0.5091521501541137,-0.3814495450258255,1.704099982606278,2.7341907082591206
-1.6555420482158663,0.5623840320110322,-0.15443600200116636,1.7552623027872147,2.7442627081181854
-1.4634021033346654,0.6886815512180329,-0.12531752586364747,1.6221998882138369,2.754334708210081
-1.0616592847555877,0.981490815281868,-0.021347599625587466,1.4459945979844415,2.7644067083019763
-0.6151501100510359,1.3232874673604966,0.13604014992713928,1.4656078266580586,2.774478708161041
-0.3241608649492264,1.3962811839580536,0.36119186639785766,1.4782222347779452,2.7845507082529366
-0.4323650158569217,1.4409743767976761,0.3384162305295468,1.5420350860503256,2.794622708344832
-0.28374268110841516,1.1051740443706513,-0.15339066602289678,1.1512811445759554,2.804694708203897
-0.2505023564770818,0.5735750180482865,-0.2369261084496975,0.6692336757775874,2.8147667082957923
-0.4799321882799268,0.3617543685436249,-0.12696337088942528,0.6142644593781751,2.824838708154857
-0.5816687704995275,0.2560326164960861,-0.7283285969495774,0.9666197827578348,2.8349107082467526
-0.545262361317873,0.10496687650680543,-1.3281861184537411,1.4395858616583983,2.844982708338648
-0.5810605504363776,-0.11386341512203217,-1.71825986802578,1.8174193832587593,2.855054708197713
-0.7909894064068794,-0.4885845690965653,-1.8499609453976156,2.0704430979149424,2.8651267082896084
-1.0076661685109138,-0.9972116392850876,-1.9694131292402746,2.426604672028612,2.875198708148673
-1.389145534336567,-1.398046458363533,-1.9084288626909256,2.7434212106896427,2.8852707082405686
-1.9129623551666737,-1.8685759949684144,-1.7996801532804967,3.223329005138746,2.895342708332464
-2.419549039453268,-2.318021056652069,-1.827865633070469,3.8168746306319408,2.905414708191529
-2.8689527320861816,-2.602752977013588,-1.9472609527409077,4.335555103601762,2.9154867082834244
-2.9976785999536517,-2.6051041424274444,-1.7807800519466401,4.352450134685497,2.925558708142489
-2.9548670411109925,-2.5566675621271133,-1.6075926871597768,4.225179582181877,2.9356307082343847
-2.799964358210564,-2.6510457158088685,-1.542747650295496,4.1530608118651875,2.94570270832628
-2.553579939901829,-2.733007891774178,-1.4545472261309624,4.013204490057072,2.955774708185345
-2.2821947278082373,-2.749190061092377,-1.6429044610261918,3.932631922225189,2.9658467082772404
-2.145506852567196,-2.984191412329674,-2.245404485464096,4.307022096899115,2.975918708136305
-2.4945584374666216,-3.503773241043091,-2.525569730401039,4.987760137146082,2.9859907082282007
-2.961599525213242,-3.7673423337936405,-2.520072178244591,5.414305476356081,2.996062708320096
-3.0975402724742893,-3.7279344391822815,-2.7944627130031585,5.594754040778413,3.006134708179161
-2.7771093463897705,-3.304596025943756,-3.201951078772545,5.3744936438088144,3.0162067082710564
-2.0308417841792106,-2.6777066802978515,-3.466276801228523,4.827991951196168,3.0262787081301212
-1.2274036556482315,-1.9722827965021135,-2.9301531994342804,3.739280269708569,3.0363507082220167
-0.546067011281848,-1.055269228219986,-1.8603910624980928,2.2074503913476917,3.046422708313912
0.07640330113470555,0.03231229841709137,-0.6290563237667084,0.6345024881938301,3.056494708172977
0.6295808921009303,1.480895072221756,0.2899616700410843,1.6350841216042364,3.0665667082648724
1.0961114448308946,2.7302801656723026,0.6789973926544189,3.019425034966814,3.0766385833267123
1.7345809087157251,2.948984157443047,0.5390817081928253,3.4635079872636707,3.086710583185777
2.1066187754273415,1.672418282032013,0.18406435534358026,2.6960536459733047,3.0967825832776725
1.7469872385263443,-0.7529447901248932,0.30741517022252085,1.9270169577440317,3.1068545831367373
1.6511097125709058,-2.7234944719076157,1.536655436307192,3.536226145397063,3.116926583228633
0.5472170124202967,-3.141503732800484,2.987786865234375,4.36982408272331,3.1269985833205283
-0.027546306028962138,-2.891437615156174,4.783487842082978,5.589537209525626,3.1370715831872076
-0.5408164674416185,-2.9961869752407075,4.605024096071721,5.520495065432018,3.147143583279103
-2.079873611032963,-3.2898142647743227,3.273211680650711,5.085535059453643,3.157215583138168
-2.897778920531273,-3.7166224157810213,1.1771026906371118,4.857568897922754,3.1672875832300633
-3.1073767510056496,-4.07405744612217,1.0393425822257996,5.228189681928317,3.177359583321959
-2.974138002097607,-3.998479260206223,2.524082198739052,5.586083081714039,3.1874315831810236
-1.881626980304718,-3.0582908374071125,2.9076753330230716,4.620415433859793,3.197503583272919
-0.3788589361310005,-1.2720529943704606,2.9919936445355417,3.2731756572042148,3.207575583131984
0.014699863605201246,0.4822473567724228,2.76366864413023,2.8054666231578347,3.2176475832238793
0.693515736758709,1.3712375593185426,2.5674100667238235,2.9921315097991057,3.227719583315775
1.283312977552414,1.7405248957872392,2.683756794333458,3.44657360901238,3.2377915831748396
1.328115220963955,2.1862218922376635,2.524049454331398,3.593644647174508,3.247863583266735
1.1928868107497692,2.43414559006691,2.438782432079315,3.6463273917630654,3.2579355831258
1.0783217297494412,2.287191612124443,2.6692732411623004,3.676825105904186,3.2680075832176954
1.1503755064308645,2.194302744269371,3.0584785330295565,3.9360664725467718,3.278079583309591
1.3458623975515367,2.293273301124573,3.261818965673447,4.208314507213186,3.2881515831686556
1.3371977010369303,2.475067328810692,3.489323017001152,4.482123502401353,3.298223583260551
1.3426962764561177,2.6760671210289004,3.636512053012848,4.7104552262778965,3.308295583119616
1.2785893043875696,2.9072882473468784,3.7943330812454223,4.948138952564787,3.3183675832115114
1.152249904498458,3.1647709733247757,3.918256630897522,5.166835606208906,3.328439583303407
1.0180571092665196,3.4257111579179766,3.889464356303215,5.282032771023388,3.3385115831624717
0.9091886050254107,3.616950193047524,3.7301113575696947,5.274721164039385,3.348583583254367
0.942016554772854,3.785641195178032,3.4845534431934357,5.230734857222865,3.3586555833462626
1.003346099406481,3.742618551850319,3.0394391217827796,4.9246408188691335,3.3687275832053274
0.9064991050958634,3.3553521966934206,2.4469100618362427,4.2505879407571845,3.378799583297223
1.0685398495942355,2.8593650525808334,1.4306949716806412,3.371147284839945,3.3888715831562877
1.2473391526937485,2.3979063016176223,0.3186048406362534,2.721638961665767,3.398943583248183
1.4207264922559262,1.9099035304784775,-0.8362240514159203,2.5229875001074493,3.4090155833400786
1.5427084739506245,1.375011352300644,-1.8721612152457239,2.788475079756865,3.4190875831991434
1.3954782150685787,0.5579085731506348,-2.7885248655080797,3.1677266849087244,3.429159583291039
1.0497440479695797,-0.3870576095581055,-3.5842180645465853,3.754782988880511,3.4392315831501037
0.7679122003912926,-1.208754546046257,-4.178484624624253,4.417070347902394,3.449303583241999
0.6006632312759758,-1.9001065206527712,-4.641025987565517,5.050774527188138,3.4593755833338946
0.4972089929133654,-2.8354236280918124,-5.139794944524765,5.891038618540673,3.4694475831929594
-0.16336873853579165,-4.143177967071534,-5.985322208404542,7.28125641287123,3.479519583284855
-1.6626136708259582,-4.687794649600983,-6.803038945198059,8.427398280912472,3.4895915831439197
-2.7992504131793976,-3.8141574811935426,-6.493737609386445,8.034440136474332,3.499663583235815
-2.7138915896415714,-1.9908120381832124,-5.040308078527451,6.06079579413228,3.5097355833277106
-1.0962506816536188,-0.10407809972763062,-3.335983879566193,3.5130309210985384,3.5198075831867754
1.2863846661150455,0.4667422950267792,-1.5567966091632843,2.0727396270359386,3.529879583278671
3.095912992358208,-1.231796084046364,0.28092830657958984,3.3437882053685732,3.5399515831377357
2.969582144021988,-3.3193041121959688,1.0499029460549356,4.575859929616523,3.550023583229631
2.936655887961388,-3.9636222535371783,2.427925906777382,5.498097251034598,3.5600955833215266
3.5716506439447406,-3.781043529510498,4.249418367147446,6.716437668399384,3.5701675831805915
4.285176722109318,-2.990669542551041,5.985264905691147,7.9454540363498465,3.580239583272487
4.650955436825752,-1.8058488196134568,6.137142823934555,7.909298229047236,3.5903115831315517
4.741866483986378,0.3805408877134323,5.139393825531006,7.003104883769862,3.600383583223447
3.924800834655762,3.019331424236298,4.295110849142075,6.5550286839580885,3.6104555833153427
3.42285625487566,4.9631213235855105,3.8887773084640505,7.174336705856196,3.6205275831744075
2.162383086383343,5.1206464827060705,4.209060884714127,6.9723105599476325,3.630599583266303
0.42348576307296754,3.5986273580789567,4.876027046442032,6.074956692148022,3.6406715831253678
-1.0981079035252332,2.0402864992618563,5.422196749448776,5.896509777536849,3.650743583217263
-2.3003756216168405,0.615583754181862,5.630955212116242,6.113781805053299,3.6608155833091587
-3.605923221409321,-0.6235763132572174,5.359882972240448,6.48998267896514,3.6708875831682235
-4.440711781382561,-1.7118291002511978,4.215776996612549,6.35791283983543,3.680959583260119
-3.056030303835869,-2.150914649963379,1.230302120447159,3.934386655752967,3.691031583119184
-1.6338684663176537,-1.38965628862381,-0.20940748533234002,2.1551153706129327,3.7011035832110792
-1.429862766712904,-0.9292114448547364,0.5414018833637237,1.7891499211051864,3.7111755833029747
-0.8055332589894534,-0.9250102204084397,-0.4118638372421265,1.2938931793722575,3.7212475831620395
0.17702394224703313,-0.8201573646068573,-1.3804872697591781,1.6154691828737235,3.731319583253935
1.1530297037959099,-0.3723734968900681,-2.0638010770082476,2.3932017057661947,3.7413915833458304
2.6301945447921753,0.3812209188938141,-3.190903934240341,4.152724485203329,3.7514635832048953
2.8348956245183947,1.1963444155454637,-2.7898738181591036,4.153464708381427,3.7615355832967907
2.1817958423495294,1.5200796031951904,-1.8508641940355302,3.2398415644143053,3.7716075831558555
1.1141775139421226,1.5802135384082796,-1.009747484922409,2.181296940549405,3.781679583247751
0.12302563659846784,1.4051566725969316,-0.2204809606075287,1.4276597759251177,3.7917515833396465
-0.6664490485936404,1.078700190782547,0.3569918113946915,1.3172667115540935,3.8018235831987113
-1.1878592285513878,0.750349795818329,0.5995781707763672,1.5275890631353841,3.8118955832906067
-1.515066054314375,0.496928545832634,0.3694744473695755,1.6367267627365658,3.8219675831496716
-1.4320322299003603,0.5085487174987793,-0.11473465025424957,1.5239757693323133,3.832039583241567
-1.1323108260333539,0.6634829753637315,-0.3601556666940451,1.3609002790806084,3.8421115833334625
-0.9808087375760078,0.7811190140247345,-0.4851427517831326,1.3444315465594094,3.8521835831925273
-0.8478328210115433,1.0384672540426254,-0.1958464948832989,1.3548396878085969,3.8622555832844228
-0.8105634724348784,0.9305206364393235,0.004618642553687096,1.234059613448301,3.8723275831434876
-0.7333441923558712,0.597303603887558,-0.5287857846915722,1.0835957298600947,3.882399583235383
-0.49402781523764133,0.3619011336565018,-0.9132788054645062,1.0995972395750244,3.8924715833272785
-0.37767684839665894,0.3315119844675064,-1.1705108320713045,1.2738271490499309,3.9025435831863433
-0.00037878993898630145,0.30641222655773165,-1.4698612301051617,1.5014595005634161,3.9126155832782388
0.1971738859266043,0.17550242364406587,-1.778016804009676,1.7975044916041576,3.9226875831373036
0.06429163444787264,-0.20905374705791474,-2.026864361912012,2.038630919271049,3.932759583229199
-0.36336461864411834,-0.6910017263889313,-2.041262545734644,2.185467916162108,3.9428315833210945
-0.9078058116137981,-1.0294496780633926,-1.9497103513777256,2.384375911120993,3.9529035831801593
-1.3881757736206055,-1.2072681838274002,-1.915771211385727,2.656069987881233,3.962975583272055
-1.9644798333942892,-1.376201845407486,-1.907933603525162,3.0648528791079572,3.9730475831311196
-2.6002225944399835,-1.5335720533132553,-1.8144296085834504,3.5220953405386295,3.9831205832306296
-3.126098366081715,-1.8075562065839768,-1.7199964910745622,3.9997672886916598,3.993192583322525
-3.1065350443124773,-1.939761752486229,-1.7846820451319219,4.074104274581866,4.00326458318159
-2.655013636350632,-1.9630167138576509,-2.0012694910168647,3.8610376330420815,4.013336583273485
-2.1247873900830747,-1.9530401945114138,-2.0144420984387397,3.519526164470936,4.02340858313255
-1.8049202817678451,-1.9644767636060716,-1.9075880330801012,3.27960337270157,4.033480583224446
-1.5743502429127694,-1.9320282250642777,-2.051846444606781,3.2282170902914826,4.043552583316341
-1.4971238730847836,-1.9914786207675934,-2.3261270517110826,3.408553072644883,4.053624583175406
-1.7476419804990293,-2.3959802287817005,-2.3170537810027603,3.763470734943287,4.063696583267301
-2.1272657324373725,-3.079486994147301,-2.388338502645493,4.439894193192401,4.073768583126366
-2.1950412476062775,-3.6834382975101474,-3.0349487525224688,5.253269239311371,4.0838403748348355
-2.0537733945250514,-3.6897766792774203,-3.733927250504494,5.636900727443983,4.093912374926731
-2.123444138467312,-3.075745360851288,-3.4803364312648775,5.1070506369899,4.103984374785796
-2.105355338305235,-2.124422085285187,-2.1971374744176866,3.711213194963116,4.114056374877691
-1.837743626832962,-1.1139565622806549,-0.7851389016956092,2.287934429910327,4.124128374969587
-0.855343277156353,0.08892854869365692,0.6173724174499512,1.058616602164035,4.1342003748286515
0.38666591919958593,1.382236756682396,1.0419434237480165,1.7736220236809388,4.144272374920547
1.395781247019768,2.1101157027482986,0.8296438872814179,2.6625368632603803,4.1543443750124425
2.20041220754385,1.6856540393829347,1.0055456026643514,2.948620928948585,4.164416374871507
2.706465333402157,-0.10754783749580384,0.6631805281341077,2.7886070987419345,4.174488374963403
2.0505458776652814,-2.842641431093216,0.7719049715995789,3.589036916410573,4.184560374822468
0.4122805244475603,-4.385452085137367,2.4846620249748232,5.057243379572158,4.194632374914363
0.5920521829649806,-4.035687432289124,2.307596640586853,4.686395319874084,4.2047043750062585
0.19531154774129392,-3.274316804409027,3.2724854564666748,4.633406759513171,4.214776374865323
-0.2777262981981039,-3.038452404141426,3.4375652182102203,4.596322392782334,4.224848374957219
-0.943400079086423,-3.63727569937706,2.177160462141037,4.342787802830035,4.234920374816284
-1.1791644919663669,-4.4184590327739715,1.3851457464694978,4.778267244763393,4.244992374908179
-2.1403595486283304,-5.181189723014832,2.2222632524371146,6.030283567661753,4.2550643750000745
-2.100225576013327,-4.603605853915215,3.0667865493893625,5.916866913144021,4.265136374859139
-1.039088301435113,-2.678554526567459,3.438239986896515,4.480608558830873,4.275208374951035
-0.1535267234221101,-0.2852646017074585,3.7894018319249154,3.8032239733662743,4.2852803748101
-0.11675672706216575,1.3176665389537812,3.874510102272034,4.094106224049487,4.295352374901995
0.3184284739941359,2.0213830357789995,3.912828075885773,4.415609767837883,4.3054243749938905
0.4001747415214777,2.561558173298836,3.672855421900749,4.495729868345248,4.315496374852955
0.1031209470704198,2.99654833316803,3.079352508187294,4.297946918287402,4.325568374944851
0.16676295585930348,3.1701311159133914,2.7314013692736627,4.187850834927058,4.335640374803916
0.39435979519039394,3.008791818022728,2.657601906359196,4.0337570260177,4.345712374895811
0.7980497731268407,2.6631944757699966,2.605624544620514,3.8103500526445715,4.3557843749877065
1.4726690630614758,2.4341777497529984,2.6304436361789705,3.8746882725976004,4.365856374846771
1.6933554071187973,2.323864179253578,3.0537341022491455,4.194411666214437,4.375928374938667
1.7289842462539673,2.1859429800510406,3.3974404549598693,4.394352612254363,4.386000374797732
1.881221622079611,2.2648675274848937,3.66439771682024,4.7006840284657265,4.396072374889627
1.7720843651890756,2.774926580786705,3.9587898221611977,5.149030722587626,4.406144374981523
1.5628302048146725,3.2427663981914523,4.213225271701813,5.541591770640224,4.416216374840587
1.3267167131602764,3.4828214979171754,4.2981373679637915,5.688954882684477,4.426288374932483
1.1158398042619229,3.5865060800313953,4.076895684599877,5.543392711506785,4.436360374791548
0.9532883785665036,3.6156363236904148,3.4487971347570423,5.086824789061235,4.446432374883443
0.8641942074894906,3.358738903999329,2.547548829317093,4.30325036353358,4.456504374975339
0.8920351400971414,2.779458172917366,1.4628271758556366,3.2651152770747696,4.466576374834403
0.9051892556995154,2.1528173339366914,0.2967093569040299,2.354150909437738,4.476648374926299
0.9361310398578644,1.566907029747963,-0.9110040923953057,2.0399675046480383,4.486720374785364
0.917690675854683,0.74694963991642,-2.3414262914657593,2.623426579778629,4.496792374877259
0.7761046611517668,-0.400108010172844,-3.392312446832657,3.502885753461243,4.506864374969155
0.7257254165410996,-1.5494606924057008,-4.176903829872608,4.513760230841751,4.516936374828219
0.644599830955267,-2.17526947259903,-4.573465503752232,5.105280886934672,4.527008374920115
0.5883904372528196,-2.4831242072582245,-4.716786314249039,5.362852064863377,4.53708037501201
0.5711029249057175,-2.9007533991336825,-4.93962019443512,5.75676788647004,4.547152374871075
0.14290401365607977,-3.4419330883026125,-5.218677392005921,6.253152697904081,4.557224374962971
-0.39298171609640126,-3.4981090432405475,-5.210081984996796,6.287778287915018,4.567296374822035
-0.9872884757816792,-2.6031692987680435,-4.614987751543522,5.389744045811132,4.577368374913931
-1.2614831288158894,-1.2409323585033418,-3.637052920460701,4.044676346619036,4.587440375005826
-0.4154982837662101,-0.28037340581417086,-2.4898350566625598,2.5397887077247896,4.597512374864891
0.9846345707774162,-0.5123248493671417,-1.3414331316947938,1.7410987439136223,4.607584374956787
1.9404239496588709,-1.6721510642766952,-0.29511482119560245,2.5784543904945707,4.6176563748158514
2.2709189571440223,-2.8946424740552903,0.6001652312278748,3.7277642451335136,4.627728374907747
2.3461493799090385,-3.717688947916031,1.6167975202202798,4.683979317598982,4.637800374999642
2.837797305285931,-3.4148289048671723,3.0108728420734407,5.364653322120621,4.647872374858707
3.6291129863262177,-2.4119133067131044,3.919272876977921,5.860758206139896,4.657944374950603
4.12263991445303,-1.346062372326851,4.232612592279911,6.059954878607757,4.6680163748096675
4.036056391596794,0.06757159352302551,3.7790215623378756,5.529495554299251,4.678088374901563
3.8155795240402224,2.0195195281505587,3.204656585454941,5.376516535783758,4.688160374993458
2.973060360252857,3.9397316998243332,3.2729739913344384,5.922240498346826,4.698232374852523
1.9482533714175225,4.908080313205719,3.614826776683331,6.399368420832175,4.708304374944419
1.0735571260750294,4.618515084385872,3.889883601665497,6.133058040011725,4.7183763748034835
-0.05970230106264353,3.0589147353172303,4.228164907693863,5.218994367629352,4.728448374895379
-1.2417901450395585,1.3897638773918153,4.706554856300354,5.062128506328632,4.738520374987274
-2.066156920194626,0.012251086235046388,4.592902525663376,5.0362593378644736,4.748592374846339
-3.035856532752514,-1.3175150960683824,3.9056664061546327,5.1192285543809275,4.758665374945849
-3.8722752964496614,-2.293152263760567,2.843384027481079,5.323335045253027,4.768737374804914
-4.381262847483159,-2.2650751036405565,1.84810138463974,5.267020798494709,4.7788093748968095
-3.7578327146172525,-1.5758854293823243,0.9191600811481476,4.17726906631156,4.788881374988705
-2.429151921719313,-0.646882730126381,0.10051835138350726,2.5158180109644754,4.79895337484777
-1.1053827899694444,0.08959454655647278,-0.01907127857208252,1.1091717670404646,4.809025374939665
0.1078109622001648,0.6249843227863312,-0.28995995242148637,0.6973559932398122,4.81909737479873
0.9734193187952042,0.8118946641683579,-0.3039078640937805,1.3034869027983418,4.8291693748906255
1.9025679060816765,0.8278142935037613,-0.6968980586528778,2.1887686140694034,4.839241374982521
2.2767110627889635,0.7498802644014358,-0.7158266651630402,2.501627767858931,4.849313374841586
2.1005679304897784,0.7954183799028397,-1.0942736649513245,2.4985017277351185,4.859385374933481
2.0648760876059535,0.8675250738859177,-1.3812210953235626,2.6313655628122934,4.869457374792546
0.9245734333992005,0.685411788225174,-0.7573179227113724,1.3777357472481742,4.8795293748844415
0.02659138262271881,0.32901288449764254,-0.40541962087154393,0.522801729896596,4.889601374976337
-0.23451164692640306,0.40698258161544804,-0.6290849751234054,0.7850977265337892,4.899673374835402
-0.26903843209147454,0.645284686088562,-0.6232675802707672,0.9366090329797329,4.909745374927297
-0.17823965147137644,0.8457015109062195,-0.3544237142801285,0.9341287856338774,4.919817374786362
-0.21273676201701167,0.9138239121437073,-0.0030492498725652696,0.9382645523752339,4.9298893748782575
-0.2887108775228262,0.7935349917411805,0.1280073181539774,0.854071207463786,4.939961374970153
-0.44972718983888627,0.6025807160139084,0.06651215113699437,0.7548390098829594,4.950033374829218
-0.6528092486411333,0.5278585624694825,0.10774152651429177,0.8464058208799012,4.960105374921113
-1.066085480824113,0.5133159524202348,-0.3113420140743256,1.223505361312704,4.970177375013009
-1.0742229046672582,0.5624957138299942,-0.7820304487645626,1.4428887343741301,4.9802493748720735
-0.997977332174778,0.5348132407665253,-0.8243715991079807,1.400561491491798,4.990321374963969
-0.8395764063298703,0.5224294227361679,-0.8328149785101414,1.2928270697340276,5.000393374823034
-0.5586168536916375,0.4523943972587586,-1.0637009131908417,1.2838119459728088,5.010465374914929
-0.37775399509817364,0.3334585225582123,-1.276751378327608,1.3725839679745584,5.020537375006825
-0.27764670297503474,0.021017231941223145,-1.5200972910225392,1.5453883621554294,5.0306093748658895
-0.27237940320745113,-0.4392375773191452,-1.6772909130156042,1.7551139551338422,5.040681374957785
-0.5112428952008486,-0.8636507087945938,-1.628319166302681,1.9127689750838726,5.05075337481685
-0.9153394373506308,-1.1503432005643845,-1.6223036970198155,2.1892932763835553,5.060825374908745
-1.4165907566249372,-1.3313537013530732,-1.6071149696409703,2.522310562858158,5.070897375000641
-1.9959295213222505,-1.4689164662361145,-1.4727617414295675,2.882789861554934,5.080969374859706
-2.783437203168869,-1.6390406209230424,-1.3440275412797928,3.4986264237181617,5.091041374951601
-3.2295180693268777,-1.8005354547500612,-1.2969118469953538,3.918379157610671,5.101113374810666
-3.075143389999867,-1.7857513546943666,-1.536421401500702,3.873758574413488,5.111185374902561
-2.4587834179401398,-1.7288848435878754,-1.8294148528575898,3.518723831530577,5.121257374994457
-1.804360995590687,-1.7413031601905824,-1.9629670125246048,3.1845085633985186,5.131329374853522
-1.50442777633667,-1.8193810307979585,-1.8279476402699948,2.98577340818244,5.141401374945417
-1.4056168484687805,-1.8493895262479783,-1.6686946289241316,2.8601646996449825,5.151473374804482
-1.6686637848615646,-1.67601548910141,-2.0515505754947663,3.130866734696523,5.161545374896377
-1.984461669623852,-1.4836993968486787,-2.6054801183938983,3.5955498419242224,5.171617374988273
-2.2398006601631644,-1.5983580332994463,-3.0270842474699022,4.090806086966314,5.181689374847338
-2.4172431899607183,-2.1245238268375397,-3.154022036790848,4.5060538322099735,5.191761374939233
-2.3292234447598457,-2.66898789703846,-3.2948089563846588,4.837824336334388,5.201833374798298
-2.0181596119701863,-3.0375232815742494,-3.608556514978409,5.1304186990231475,5.211905374890193
-1.8913085076212883,-2.8985302877426147,-3.274285814166069,4.76439642481722,5.221977374982089
-1.8496658071875574,-2.2294363242387774,-2.0054025954008106,3.523249848045752,5.232049374841154
-1.5413804250955583,-1.3108609646558762,-0.6883406585454941,2.1372933691314215,5.242121374933049
-0.7251926621049642,-0.05546434879302979,0.3167062497138977,0.7932739374048297,5.252193374792114
0.23380574181675912,1.111447522044182,0.8347987926006317,1.4095636712444422,5.262265374884009
1.3491568650305272,1.8243804001808168,0.9470770275592805,2.4587685916233433,5.272337374975905
2.0200416845083238,0.9912042099237443,0.6970232621580362,2.3556093948087424,5.28240937483497
1.9024628023803236,-1.253012121319771,0.7678518278896809,2.403955182653909,5.292481374926865
1.2327313461899758,-3.640447813868523,0.7921820922195911,3.9242883844861436,5.30255337478593
0.004038306400179863,-4.563608559966087,1.3808784484863281,4.76795183344047,5.312625374877825
-0.8065012655407191,-4.064273884892464,3.206431507766247,5.239271849859844,5.322697374969721
-1.3480048173666002,-3.689012448191643,4.4557256770133975,5.939648233637491,5.332769374828786
-1.6046487602591515,-3.5057601249217987,3.7699700725078586,5.392395204813705,5.342841374920681
-2.3723922684788703,-3.5407498633861545,2.596142407357693,4.990501985761392,5.352913375012577
-2.9754623964428903,-4.239288066029549,1.5490019783377649,5.4059547638063465,5.362985374871641
-3.3984502691030505,-4.971623759865761,2.8550843060016633,6.664684046194941,5.373057374963537
-2.43088796004653,-4.67639433324337,3.6586083886027336,6.415862808340291,5.383129374822602
-0.28646620452404026,-3.1080412870645526,3.7002642452716827,4.840861391660404,5.393201374914497
0.38937255878001453,-0.8991719591617585,4.115853343605996,4.230882880409991,5.403273375006393
0.20010005190968513,0.9099489623308182,3.871887041330338,3.9824058564695526,5.413346374873072
0.2448416304588318,1.7339812767505647,3.724636609554291,4.115769231305291,5.423417374957353
0.21096015863120557,2.285638006925583,3.560228692889214,4.2360209670047775,5.433489374816418
0.17893240034580232,2.7666445845365524,3.2656515231728553,4.283785584251403,5.443561374908313
0.28183506354689597,2.929789502620697,3.120719804763794,4.2897540293769625,5.453634375007823
0.5076845721155405,2.8099970108270647,3.2023527824878695,4.290558258447143,5.463706374866888
0.8293882908672094,2.5151985239982606,3.418197485804558,4.324139521813705,5.473778374958783
0.9910754249989987,2.100682974457741,3.613685692548752,4.295791398769861,5.483850374817848
1.0982735259085894,1.7584179604053498,3.7691824525594715,4.301740905943782,5.493922374909744
1.1940664865076542,1.624804989695549,3.9881367051601413,4.46889476356133,5.503994375001639
1.193155490309,1.687184255719185,4.1598314219713215,4.644825959712716,5.514066374860704
1.2056248238682747,2.0089617955684664,4.287697164416313,4.886082857026145,5.524138374952599
1.2392583006620408,2.492207272052765,4.396353049278259,5.203342998162883,5.534210374811664
1.2820907633006573,3.149962314963341,4.350567011833191,5.522087706246729,5.54428237490356
0.6418461578339338,3.3928615003824234,4.33868313074112,5.545056082681312,5.554354374995455
0.7087470757216215,3.2597081208229066,3.6444534489512446,4.940653842547095,5.56442637485452
0.7984554237127305,3.1794749665260316,2.760138387680054,4.285435339095321,5.574498374946415
0.9333911807835102,2.838486984372139,1.7614210903644563,3.468548934986385,5.58457037480548
0.946933770775795,2.179512796998024,0.7563595640659333,2.4938001902052664,5.594642374897376
1.021127555295825,1.4823451817035675,-0.39187103748321533,1.8421757874650242,5.604714374989271
0.8336297880113125,0.6685805779695512,-1.6477868860960008,1.96396034447945,5.614786374848336
0.5071490402519703,-0.34375371515750885,-2.5716528064012527,2.643627228333171,5.624858374940231
0.042176989763975145,-1.2405183756351472,-3.1283384343981746,3.3655855506712107,5.634930374799296
-0.3029427263326943,-1.7422749674320221,-3.2704669976234437,3.7179632515830816,5.645002374891192
-0.29441174833104017,-1.9734832298755647,-3.158792487680912,3.7362125630623315,5.655074374983087
-0.10868561429902912,-2.1708109706640246,-3.273476267158985,3.929361233682132,5.665146374842152
0.12863910980522633,-2.44603824198246,-3.511272879838944,4.281201739991307,5.6752183749340475
0.22542077975347638,-2.624335634708405,-3.6757921859622003,4.522101308675625,5.685290374793112
0.027539600003510713,-2.3555467325448993,-3.3246844276785854,4.07466383673792,5.695362374885008
-0.39510023541748523,-1.50921781539917,-2.5186714777350425,2.96269279931302,5.705434374976903
-0.5826094047725201,-0.1221647071838379,-1.586868839263916,1.6948482667299487,5.715506374835968
-0.20879592139273884,1.023325304389,-0.996269945204258,1.4433794439129226,5.7255783749278635
0.8056109538674355,1.009874954223633,-0.4682008829712868,1.3740700487873523,5.735650374786928
1.7435217399895193,-0.3704211115837097,-0.01703966349363327,1.7825179404019946,5.745722374878824
1.867708560526371,-2.103222420215607,0.3617768803238869,2.8359764327472767,5.755794374970719
1.6198662851750851,-2.445198581814766,1.131127495765686,3.1436304328010674,5.765866374829784
1.9550415502488614,-2.3039520710706713,1.834592854678631,3.5349842363761956,5.7759383749216795
2.4827005764842034,-2.636932291388512,2.2911788284778596,4.285640498911177,5.786010375013575
2.396801031678915,-2.9455863404273988,2.4123176416754726,4.498934371460457,5.79608237487264
2.1089810505509377,-2.610435633659363,2.26894274443388,4.050959941369532,5.806154374964535
2.0611012713611125,-1.423113471865654,1.6847373421490193,3.0185642806876336,5.8162263748236
1.6149530160427095,0.5340899401903153,0.9374454939365388,1.9421970451887367,5.8262983749154955
1.1160365630686284,2.608738771677017,1.0144077157974243,3.0133168772676893,5.836370375007391
0.32163918010890485,4.000867847800255,1.978906230032444,4.4750938722002465,5.846442374866456
-0.7048967573046685,4.2318375438451765,3.158788686990738,5.3275955556908485,5.856514374958351
-2.039548726826906,3.322251693606377,4.218361465930939,5.7438392023125715,5.866586374817416
-3.188434947431088,1.7534226840734484,4.79072669506073,6.01595136198679,5.8766583749093115
-3.7517080485820773,0.40257436573505406,5.26854595541954,6.480351524887374,5.886730375001207
-4.440044321715832,-0.7931467366218568,5.533611935377121,7.138903023291676,5.896802374860272
-5.161888648867607,-1.8768585759401322,5.032582737207413,7.449468541058908,5.906874374952167
-5.428048058152199,-2.582704043984413,3.9133250892162326,7.172738609088758,5.916946374811232
-4.9739433503150945,-2.579220272898674,2.4489998567104343,6.11474365500656,5.9270183749031276
-3.898109464645386,-1.5030174279212953,1.0363686883449554,4.304460343083083,5.937090374995023
-2.453873510956764,-0.7137555813789368,0.48754559196531777,2.6016615732968944,5.947162374854088
-0.6120203513279557,-0.06715761065483093,-0.40343332171440127,0.7360961215615633,5.957234374945983
0.5491968796402216,0.49051999747753144,-1.367214674949646,1.552901493311659,5.967306374805048
1.0618510003387929,0.6996602833271027,-1.0790955356508494,1.6677827298684473,5.977378374896944
1.6542664781212808,0.565269632935524,-0.48613272193819285,1.8145116042323577,5.987450374988839
2.112812000066042,0.30261387526988986,-0.10094742737710477,2.1367592490084104,5.997522374847904
2.211415790319443,0.10739347100257875,-0.1825722920894623,2.22153680976187,6.007594374939799
2.0169775973260404,0.22280230522155764,-0.5058999288082123,2.0913570315217154,6.017666374798864
1.0182813499867918,0.30777170419692995,-0.12068885168060661,1.0706008259641822,6.02773837489076
0.2256860606186092,0.32370945990085603,0.06553442358970643,0.4000209657781521,6.0378113749902695
-0.23183641785755754,0.4882074236869812,0.1120010586641729,0.5519409844630123,6.047883374849334
-0.5012931999564171,0.6730653923749924,-0.08375904360786081,0.8434023192531251,6.05795537494123
-0.5803555224090815,0.7187251299619675,-0.23847985982894898,0.9540707460003163,6.068027374800295
-0.7441884385049343,0.6644489353895188,-0.10292619824409485,1.0029469687025632,6.07809937489219
-1.0569711334258318,0.5819096392393113,0.23181871175765992,1.2286361219889694,6.0881718748714775
-1.4256166648864748,0.5010999494791031,0.4709634000062943,1.5828109674612074,6.098243874963373
-1.7868004913628102,0.4329904121160507,0.48119836628437046,1.9004443061120087,6.108315874822438
-1.9557079866528513,0.3801830381155014,0.28114580472931266,2.0120576122580025,6.118387874914333
-1.9236697764694692,0.2917240208387375,-0.10909683801233769,1.9487202039545617,6.128459875006229
-1.77785118162632,0.2613933438062668,-0.5071091330051423,1.867147818726078,6.1385318748652935
-1.5723238903284074,0.2837735617160797,-0.9329536628723145,1.850170907644306,6.148603874957189
-1.3779254584014415,0.426695299744606,-1.130820443853736,1.8328945206892082,6.158675874816254
-1.3340261712670327,0.4678643757104874,-1.1504058388620615,1.822623519482909,6.168747874908149
-1.3924809323251248,0.41523124873638156,-1.1406672281026842,1.847306650798314,6.178819875000045
-1.5318516562879085,0.36391900777816777,-1.0912057039886713,1.9156556134941547,6.1888918748591095
-1.7479862353205682,0.2958433842658997,-0.9721294961124659,2.0218840085662557,6.198963874951005
-1.8986147497594357,0.10672104120254518,-0.7607123044878245,2.048123667857636,6.20903587481007
-2.132276942431927,-0.0724744838476181,-0.6831519124656916,2.240212946472133,6.219107874901965
-2.140167175233364,-0.3077570861577988,-0.7625435793399811,2.292706407811372,6.229179874993861
-2.0373900809884073,-0.5279696595668792,-0.7280509272962808,2.2270537614233947,6.2392518748529255
-1.8536772894859315,-0.7267077487707139,-0.425715891122818,2.0360397013893916,6.249323874944821
-1.4217765060067178,-0.8096312069892884,-0.14331350147724153,1.6424036909570283,6.259395874803886
-0.9369435104727746,-0.7666138261556625,0.2142810116708279,1.229421104517384,6.269467874895781
-0.47700181961059573,-0.6765339607000351,0.5575670957565307,0.9980531058829827,6.279539874987677
-0.24005268774926664,-0.5752555078268051,0.574034024477005,0.8473837698693486,6.289611874846742
-0.4176538232713938,-0.6187424200773239,0.2636865486949682,0.7917117496027327,6.299683874938637
-1.0393091069161893,-0.7167657279968263,-0.254126278012991,1.287826344553676,6.309755874797702
-1.910429487526417,-0.7697157740592957,-0.6360519325733185,2.155635697555689,6.319827874889597
-2.686265834569931,-0.7954850381612778,-0.8883733943849802,2.9390522056893156,6.329899874981493
-3.2171591019630434,-0.8799667793512345,-1.1300703922659159,3.521578241581675,6.339971874840558
-3.3993940097093582,-1.0978164929151535,-1.2713478201627733,3.7917549980447087,6.350043874932453
-3.378046994805336,-1.5991158324480057,-1.452522042989731,4.0097622410899,6.360115874791518
-3.2743366849422455,-2.356846568584442,-1.6664506137371065,4.364981571808936,6.370187874883413
-3.3259313464164735,-3.1539337438344957,-1.792766844034195,4.921699943987027,6.380259874975309
-3.569198614060879,-3.5314241391420365,-1.8369782263040544,5.346459033888165,6.390331874834374
-3.795470364689827,-3.2466770160198215,-1.9062864428758621,5.346067240306879,6.400403874926269
-3.749385534524918,-2.665312922000885,-1.9483415181934836,4.995780172326049,6.410475874785334
-3.5057346895337105,-2.1229363077878953,-1.6982764238119126,4.436347269094193,6.420547874877229
-3.05663782954216,-1.525162587761879,-1.2978286904096603,3.654246167097555,6.430619874969125
-2.419597863703966,-0.9045297628641129,-0.8933715212345124,2.7332655540398325,6.44069187482819
-1.6897242861986161,-0.020074660778045657,-0.3040189794637263,1.7169737025501999,6.450763874920085
-1.1300473688542843,0.7507497453689576,0.15094123084098102,1.3650697752107164,6.4608358750119805
-0.7110258087515832,1.1936599588394166,0.36322311602532864,1.436075495948075,6.470907874871045
-0.4080016051232815,1.585552631020546,0.709876538515091,1.784479519482787,6.480979874962941
-0.48914283201098446,1.7263196700811387,1.0870079147815706,2.097862369226007,6.491051874822006
-0.7940654803812505,1.1033631616830826,0.9475657086074353,1.6570549254086617,6.501123874913901
-1.3931828905642034,-0.8128366506099701,0.566631303280592,1.7096002518112607,6.5111958750057966
-2.1962340795993804,-2.8575038838386537,0.661205484867096,3.664145913001427,6.521267874864861
-3.1157178041338924,-3.3907272666692734,1.5129576945304872,4.84703722054725,6.531339874956757
-3.3986397188901902,-3.346974890828133,2.316063701212406,5.302560129477618,6.541411874815822
-3.8403571003675463,-3.4797183805704117,3.0189852690696717,5.997587408390367,6.551483874907717
-4.95844822883606,-3.6750995832681657,3.9922364804148676,7.350545415174346,6.561555874999613
-5.631200795173645,-3.71526703119278,3.7888849380612375,7.737524189461356,6.571627874858677
-5.9971131187677384,-3.5458229076862335,4.054253511428834,8.060719408768772,6.581700874958187
-6.652184289693833,-3.51665875017643,4.633214692175389,8.836578691610898,6.591772874817252
-6.168737084269524,-3.4314344125986103,4.611811544001102,8.431895697895573,6.601844874909148
-4.7922010704875,-2.828437374830246,4.511128045320511,7.1634855569474984,6.611916875001043
-3.349105031490326,-2.1307136893272403,4.387320562899113,5.916504631915513,6.621988874860108
-2.1781442561745643,-1.4876655632257463,4.145936683416367,4.913883618036912,6.632060874952003
-1.1825729070603848,-0.8413219463825227,3.772137342989445,4.041697840308402,6.642132874811068
-0.5402134367823601,-0.4364326679706574,3.3555983644723892,3.4267104363517453,6.652204874902964
0.04605734825134278,-0.3706450599431992,3.123963255286217,3.1462112866377394,6.662276874994859
0.3048941431939602,-0.25310082256793975,3.0273751464486125,3.053198444627094,6.672348874853924
0.36462345108389854,-0.09017459034919739,3.1050656390190126,3.1277011270966293,6.682420874945819
-0.0614632996916771,0.0745291954278946,3.313134714961052,3.314542800698185,6.692492874804884
-0.6718705138564111,0.1174939513206482,3.3258088472485543,3.3950286161420458,6.70256487489678
-1.038278973698616,-0.008290767073631288,3.5192674854397774,3.6692418287865594,6.712636874988675
-1.463169237971306,-0.0934747588634491,3.749206025004387,4.0256859747649605,6.72270887484774
-1.7731544056534767,0.014565414190292359,3.9458183589577676,4.325941656965226,6.732780874939635
-1.833000950217247,0.28669073760509495,4.009265618920327,4.41772507808968,6.7428528747987
-1.6958236630260946,0.5928532880544662,4.042314958870411,4.423528359120548,6.752924874890596
-1.4200483614206314,0.8555476373434068,4.1010654428601265,4.423486958854839,6.762996874982491
-1.0282422280311585,1.0272195500135421,4.074690114855766,4.3261485891656335,6.773068874841556
-0.4839412220567465,1.0449395370483399,3.9905741170048716,4.153405774277513,6.783140874933451
-0.0013330189883708954,0.9653981083631517,3.8080032867193223,3.9284709896136354,6.793212874792516
0.4903207536041737,0.8377925670146943,3.456180998682976,3.589916144204108,6.803284874884412
0.6933601277321577,0.7377221488952637,3.0491381907463073,3.212822114896351,6.813356874976307
0.8305214812606574,0.5469356882572174,2.6196885600686075,2.8020836407357876,6.823428874835372
0.912138890773058,0.2515887326002121,2.139961060881615,2.3398135798652104,6.833500874927267
0.9683227394521237,-0.06728215634822846,1.7380737429857256,1.9907476365324015,6.843572874786332
0.7950570219755173,-0.26671547949314117,1.482462710738182,1.7032171041658293,6.853644874878228
0.5018492701649666,-0.37551111280918126,1.3623132464289667,1.4995861653149944,6.863716874970123
0.23084208056330682,-0.4972986745834351,1.1359096410870553,1.2613027989407462,6.873788874829188
-0.1506289529800415,-0.6492327260971069,0.8479959583282471,1.0785589272044374,6.8838608749210835
-0.16550189416855574,-0.6099949854612351,0.47097012430429464,0.7882243444911068,6.893932875012979
0.05352402336895466,-0.23691163659095765,0.24357483118772508,0.34397767808091145,6.904004874872044
0.09307839073240758,0.1367143338918686,-0.26229439973831176,0.3100850658237403,6.914076874963939
-0.2600772086530924,0.2462414538860321,-1.0214118030667305,1.0823849035887005,6.924148874823004
-0.8507793791592122,-0.16536510586738587,-1.9104607701301575,2.0978635619237442,6.9342208749148995
-1.6984819534420967,-0.7694374465942383,-2.4074717617034915,3.0451264692602926,6.944292875006795
-2.0043727545440198,-1.297182573080063,-2.28159436494112,3.3024030058719465,6.95436487486586
-1.8404291068017484,-1.4731673920154573,-1.7049887350201607,2.9093621377556893,6.964436874957755
-1.081171662658453,-0.8681828856468201,-0.7013796570897103,1.5539006115080085,6.97450887481682
-0.061244942732155326,0.0005858910083770752,-0.018838851749897006,0.06407954910728758,6.9845808749087155
0.3746244556456804,0.22593524336814882,0.015087278187274934,0.4377417536935987,6.994652875000611
0.337143072411418,-0.17040715992450714,-0.0017167425155639648,0.37776579865494964,7.004724874859676
-0.038753636861220006,-0.8234627956151963,0.17731096744537356,0.8432271338783995,7.014796874951571
-0.21969768952578309,-1.6003952032327653,0.7113162691891194,1.7650786713703555,7.024868874810636
-0.0446420571114868,-2.053582482933998,1.5074984416365624,2.5478903977630543,7.0349408749025315
0.2366302027925849,-1.243790477514267,2.072721881568432,2.4288237077156114,7.045012874994427
1.1329439333081246,0.15826132357120515,2.403812574148178,2.66212762545132,7.055084874853492
2.4654246854782107,1.2470409446954729,2.5539176166057587,3.7624360712072638,7.065157874953002
3.517037357389927,1.7637377572059632,2.7581424406170845,4.804963306020496,7.0752298748120666
3.757956383228302,1.841008712053299,2.6678248858451843,4.962745094968848,7.085300958249718
2.966140180528164,1.5206976538896562,2.1536179639399053,3.9684479661063743,7.095372958341613
1.8646408188343049,1.3567750561237335,1.6608150672912598,2.841835784123407,7.105444958200678
0.9216020245850086,1.4403200733661652,1.6004286785423756,2.342059811482533,7.115516958292574
0.32110693730413914,1.4750139427185058,1.8738221168518068,2.4062387915586894,7.1255889581516385
-0.3649258252233267,1.0290649312734605,2.339374942034483,2.58163138540548,7.135660958243534
-1.067832555770874,0.28642878234386443,3.0651034283638,3.2583994293343883,7.145732958335429
-2.0891277068853378,-0.6716421800851822,3.437854070663452,4.078528951095337,7.155804958194494
-3.4348269671201708,-1.7281516027450563,3.554627645015717,5.2364035320853795,7.16587695828639
-4.392898806631566,-2.5902539688348774,3.3716074562072755,6.11348610754309,7.1759489581454545
-4.986399089097977,-2.812127151489258,3.1703451240062717,6.543953178103474,7.18602095823735
-5.080017689466477,-2.3689029425382615,2.6304880750179294,6.191748411335063,7.1960929583292454
-4.54026822924614,-1.5509090477228165,1.4448610210418702,5.010686363956192,7.20616495818831
-3.669200912117958,-0.7924304527044297,0.34812801718711855,3.769903774927317,7.216236958280206
-2.6008590638637545,-0.3391876244544983,-0.26188038032501937,2.6359244010905374,7.2263089581392705
-1.09784061267972,-0.19305927336215975,-1.0692850041389466,1.5446346862467304,7.236380958231166
0.13665820062160491,-0.0022581946849823,-1.5510932350158693,1.5571033321370695,7.2464529583230615
0.7791180237382651,-0.08922090947628021,-1.3593291199207307,1.569318617064764,7.256524958182126
1.1396656000614167,-0.38611971616744994,-1.0392513656616211,1.5899589668309448,7.266596958274022
1.0049265287071467,-0.7053864616155625,-0.5935005748271942,1.363704631014403,7.276668958133087
0.3624599812924862,-0.8671613770723343,-0.22296602725982667,0.9659502788635481,7.286740958224982
-0.39208870008587837,-0.6551384139060974,-0.1649160397052765,0.7811127897189388,7.2968129583168775
-0.9084785337746144,-0.23676487147808076,-0.4189307820796967,1.0280534280226936,7.306884958175942
-1.0954751946777106,0.23004934430122376,-0.7424127852916718,1.3431922225549584,7.316956958267838
-1.0896134340763093,0.5990817421674729,-0.8007539641857148,1.4789737254857231,7.327028958126903
-0.9720461732894182,0.7899056249856949,-0.571904468536377,1.376916620759049,7.337100958218798
-0.870798783749342,0.8568422108888627,-0.11143800834193826,1.2267385727380815,7.3471729583106935
-0.9036452253162861,0.7631785869598389,0.4274671322107315,1.2576742018310643,7.357244958169758
-0.9568056249618531,0.5717413312196732,0.9172673374414444,1.443518105920533,7.367316958261654
-0.9294419713318348,0.40925247073173526,1.1789384239912033,1.556035272876582,7.377388958120719
-1.0218911285698415,0.1914933890104294,1.1442398768663407,1.5460323711020874,7.387460958212614
-1.3695898139476776,-0.015367067456245423,0.8400332200527192,1.6067570494706345,7.3975329583045095
-1.6868318147957326,-0.10799398005008698,0.3322259294986725,1.7226254205036509,7.407604958163574
-1.8601773467659952,-0.08965535759925843,-0.2551982188224793,1.8797404010814351,7.41767695825547
-1.9161792008578777,-0.013231664299964906,-0.7584833458811046,2.060877190110919,7.427748958347365
-1.7228190882503986,0.18426856935024263,-1.041741110086441,2.0217035037152336,7.43782095820643
-1.4808506333827973,0.3583062654733658,-1.0813185739517213,1.8683018590797063,7.4478929582983255
-1.2072111003845931,0.3804052323102951,-0.8919149798154832,1.5484118033908432,7.45796495815739
-0.9694226007163526,0.3103672832250595,-0.6495140502601863,1.2074669895121575,7.468036958249286
-0.8256154480576515,0.18601220905780794,-0.4713511434942484,0.9687173532374331,7.478108958341181
-0.7745549297332764,0.13609862208366394,-0.40859239317476753,0.8862313004331751,7.488180958200246
-0.8400487882643939,0.0923287045955658,-0.46761177599430087,0.9658505730211667,7.498252958292142
-0.9491194599866868,0.028804553747177126,-0.5949680797755719,1.120555428166686,7.508324958151206
-1.0999447332322598,0.050700622200965884,-0.6988293939828873,1.3041516365635715,7.518396958243102
-1.2513284155726434,0.07283993482589722,-0.6760843098163605,1.4241553474620834,7.528468958334997
-1.2898679986596109,0.08314623713493348,-0.515191885381937,1.391436462609502,7.538541958201677
-1.3059025257825851,0.12768447875976563,-0.33539219677448273,1.3543163067092938,7.548613958293572
-1.4160240152478218,0.0986512988805771,-0.1837059210240841,1.4312945035696516,7.558685958152637
-1.4924358679354193,0.004891195893287659,-0.019542564153671265,1.4925718259136191,7.568757958244532
-1.610382247567177,-0.08091377019882202,0.16541773080825806,1.6208766292204517,7.578829958336428
-1.6692362272739412,-0.21424432039260866,0.3020764430612326,1.709824666074495,7.588901958195493
-1.7397429768741133,-0.35137906908988953,0.3800443860143423,1.815105123985467,7.598973958287388
-1.7270684060454369,-0.5114641392230987,0.3428187453746796,1.8335445282435388,7.609045958146453
-1.6954647901654245,-0.660081650018692,0.22765900254249574,1.8336131709880168,7.619117958238348
-1.5756304907798768,-0.7711483418941498,0.03924592673778534,1.7546570751707695,7.629189958330244
-1.574582669734955,-0.8488098907470704,-0.2861582024395466,1.811539492057279,7.639261958189309
-1.715308193564415,-0.9358451110124588,-0.5477274012565613,2.029308645032195,7.649333958281204
-1.9469661068916322,-0.9134672319889069,-0.7188824200630188,2.2675738883612806,7.659405958140269
-2.1621417425572873,-0.8409401232004166,-0.8519339118897915,2.471402151804687,7.669477958232164
-2.4339751437306405,-0.9758219397068024,-1.0219605642557146,2.8144034631171126,7.67954995832406
-2.6935003021359445,-1.1172409433126451,-1.0840864996612072,3.1110150661429206,7.689621958183125
-2.935248755514622,-1.2292718410491943,-1.1759690617024898,3.3925945454810904,7.69969395827502
-3.0572862857580185,-1.376837437748909,-1.3732529483735563,3.623327810630403,7.709765958134085
-3.138849096894264,-1.6401059836149217,-1.6130058932304383,3.891543305959672,7.71983795822598
-3.2734683734178547,-1.9506264638900759,-1.82813211992383,4.226417613214817,7.729909958317876
-3.3242596274614336,-2.07637492954731,-2.023056070357561,4.410758526901377,7.739981958176941
-3.164646135270596,-1.8941207259893418,-2.3615839827060703,4.3794699900192695,7.750053958268836
-2.823343280553818,-1.386415176987648,-2.7766801607608795,4.195636666585079,7.760125958127901
-2.61789901971817,-1.0708573204278946,-3.0725738310813906,4.17622324901358,7.770197958219796
-2.6225610047578813,-1.1263532441854478,-2.853101515173912,4.0356766607660015,7.780269958311692
-2.5072328621149063,-1.140173723101616,-2.2956708057224753,3.585570692646679,7.790341958170757
-2.122556677311659,-1.1327623772621156,-1.6687555861473085,2.927992940230334,7.800413958262652
-1.751614871174097,-1.1565090894699097,-1.2351453691720964,2.4354161890592834,7.810485958121717
-1.317513488084078,-1.0004322856664658,-0.9517319959402085,1.90853355788774,7.820557958213612
-0.9362367282807827,-0.5892683601379395,-0.7419830149412155,1.3320342360851003,7.830629958305508
-0.6871924115717412,-0.17501125752925872,-0.5249296921491623,0.8822774691011734,7.840701958164573
-0.8252790869772435,0.43324885904788973,-0.25310257673263553,0.9658421504661052,7.850773958256468
-1.1546544988453389,0.6449677670001984,-0.11228759050369264,1.3273352760904564,7.860845958115533
-1.0920518691837788,0.08508751273155213,-0.3747001039981842,1.157677562081462,7.8709179582074285
-1.2323976163566113,-0.7584335714578629,-0.2825328556448221,1.4743982439065113,7.880989958299324
-1.4801109606027605,-1.5554412245750429,0.4023515137284994,2.1844936711749816,7.891061958158389
-1.3776253500580788,-2.095833878517151,1.6001129288971425,2.975018090144441,7.901133958250284
-1.071767001003027,-2.331398901343346,2.744030478000641,3.7568349186277015,7.91120595834218
-0.6645466569811106,-2.3534545987844466,3.6380288207530977,4.383562992415485,7.9212779582012445
-0.0005532196909189224,-2.64406589448452,4.273181743919849,5.025053927770142,7.931350958300754
0.31240971565246584,-3.076361657381058,4.833614852428436,5.738068788281921,7.941422958159819
0.5570035703480244,-3.3569519948959354,4.376514323651791,5.543758409107087,7.951494958251715
0.3313954056054354,-3.6805094271898273,3.017163569033146,4.770665421174535,7.96156695834361
-0.7670043470710516,-3.6497244215011597,2.2849281549453737,4.3737490433940005,7.971638958202675
-1.2186297623813154,-3.061495696306229,1.8951205998659135,3.801223024803891,7.9817109582945704
-1.1905324293673039,-1.9201022440195084,1.7390505203604698,2.8510448620163777,7.991782958153635
-0.5685669509321452,-0.5778411465883255,1.8347404968738557,2.005851803910675,8.00185495824553
0.6012313979119063,0.4725117427110672,1.9438632819056512,2.088863566529888,8.011926958337426
1.2446076259016992,1.1020340895652772,1.8957599928975106,2.521395095515061,8.021998958196491
1.4267127254605294,1.4684451806545258,1.6890138494968414,2.654168086872166,8.032070958288386
1.3180188336968424,1.658297256231308,1.5971877130866052,2.652947799493742,8.042142958147451
0.7881402043998241,1.6377980875968934,1.7246704629063607,2.5056008786614594,8.052214958239347
0.2632243993878365,1.4716038465499879,1.8643022650480272,2.3896710863792556,8.062286958331242
0.09801819160580635,1.294858889579773,2.1410354867577555,2.5040567216749414,8.072358958190307
0.027890707030892373,1.270787656903267,2.514961711764336,2.8179268216397984,8.082431208342314
0.27213146299123764,1.564020844101906,2.789096723198891,3.209248707297984,8.092503208201379
0.6291474672406913,1.7961284083127977,3.0591413149237634,3.602811316091523,8.102575208293274
0.9488626941293479,2.0061504542827606,3.2350305318832397,3.9230603614711423,8.112647208152339
1.2553925228118896,2.2192025274038314,3.2525943982601166,4.132824768068524,8.122719208244234
1.290456228554249,2.365964131951332,3.2242710703611377,4.202259807135017,8.13279120833613
1.2791614544391632,2.51546925008297,3.0505678349733354,4.155695331759753,8.142863208195195
1.3750027276575567,2.821422470211983,2.636093215942383,4.098785759175547,8.15293520828709
1.18898898370564,3.050394172668457,2.4435505440831187,4.085283181556935,8.163007208146155
1.1661956600099803,2.9797159534692765,2.115670557618141,3.8359850611228516,8.17307920823805
1.2253665588051081,2.9351215785741807,1.6041046768426896,3.5622484049709744,8.183151208329946
1.2628123471140862,2.81270134806633,1.2071377909183503,3.311067130654583,8.19322320818901
1.3068579608201982,2.5851873564720154,0.9154810130596162,3.0379560370575733,8.203295208280906
0.9091519137471915,2.1607941055297855,0.6501615563035011,2.4327553140538893,8.213367208139971
0.5277729007601738,1.6018611001968384,0.26141439378261566,1.7067046330215918,8.223439208231866
0.17252041675150395,1.1915298181772234,-0.1454106053709984,1.2127039399440902,8.233511208323762
0.029778261333703995,1.0389578354358673,-0.5821990764141083,1.1913336615906904,8.243583208182827
-0.038695411384105684,0.7995108461380005,-1.0736470270156862,1.33919112399019,8.253655208274722
-0.09439405079931021,0.5003965294361115,-1.6898812839388848,1.7649378678313132,8.263727208133787
-0.3438465762510896,0.15599552750587464,-2.520216312110424,2.5483436448856147,8.273799208225682
-0.5193470630049706,-0.3147076714038849,-3.4815827652812006,3.534144994449922,8.283871208317578
-0.5646072164922953,-1.0964307028055191,-4.373090194165707,4.5436614575998115,8.293943208176643
-0.6720337973535061,-2.3086321824789047,-4.758480177819729,5.331467488550031,8.304015208268538
-0.6182005293667316,-3.4381914550065997,-4.6881311568617825,5.846529408095703,8.314087208127603
-0.2703506021015346,-3.72816832780838,-4.4802193710207945,5.834783127160782,8.324160208227113
0.5184718444570899,-2.9497285079956055,-4.160403572022915,5.126272447546828,8.334232208319008
1.486555176973343,-1.650146822333336,-3.5576594263315204,4.194016144843577,8.344304208178073
2.3886006040871144,-0.7762664097547531,-2.6517093747854235,3.6523369221751385,8.354376208269969
3.113637364804745,-0.9437061077356339,-1.5955613100528718,3.6236907637688143,8.364448208129033
3.5072233906388286,-1.732001994252205,-0.44020324498415,3.9362705339994495,8.374520208220929
3.263058867752552,-2.387720451951027,0.38027279287576676,4.061202965635345,8.384592208312824
2.4644888386130335,-2.490279445052147,0.9633536294102669,3.633627273867723,8.39466420817189
1.5469591073691846,-2.1888215643167497,1.6998791456222535,3.1738953086092696,8.404736208263785
2.0751592934131624,-1.3095909494161606,2.838591064810753,3.7521878659063943,8.41480820812285
2.9371970477700233,-0.6594425493478775,3.573552450835705,4.672501267222219,8.424880208214745
3.295195457339287,-0.1561428773403168,4.051919010579586,5.225011135730702,8.43495220830664
3.436044649779797,0.7458626425266266,4.0260275396704674,5.345241965241818,8.445024208165705
3.1288678997755053,2.3475161665678024,3.688476258516312,5.376383877308359,8.4550962082576
2.4303530859947204,3.791938646435738,3.47812559902668,5.690586305780948,8.465168208116665
1.6554810909926891,4.34839360177517,3.182617260217667,5.637215374954995,8.475240208208561
0.684933339804411,4.065302994847298,3.152527488470078,5.189821931959659,8.485312208300456
-1.0109897258877756,2.583788702487946,3.5974783802032473,4.543117319746956,8.495384208159521
-2.7429537132382396,0.6236575895547867,4.291413069963456,5.131176278304021,8.505456208251417
-3.7626110592484476,-1.1402836507558822,4.40045779466629,5.900975986224584,8.515528208343312
-4.013579986989498,-2.2089506042003633,4.221752851009369,6.2298863728615075,8.525600208202377
-4.1295793899893765,-2.52393601834774,3.855781470537186,6.187950364335187,8.535672208294272
-3.789372595846653,-2.300883452296257,2.637449769973755,5.158444593124846,8.545744208153337
-2.2911881840229036,-1.52555610537529,0.8119736015796661,2.869872097309608,8.555816208245233
-0.8111739948391915,-0.872432057261467,-0.8654042887687684,1.4724352371022047,8.565888208337128
0.27989634610712527,-0.5090556710958482,-1.593890175819397,1.6964567584859194,8.575960208196193
1.3353602135181428,-0.40373679220676423,-1.7943280506134034,2.27284039264677,8.586032208288088
2.0674167028069497,-0.3025782072544098,-1.9502124810218813,2.8581627167962242,8.596104208147153
2.5538246458768845,0.03985579133033753,-2.3318508911132816,3.458487730840832,8.606176208239049
3.280372765660286,0.8303157323598862,-2.886448186039925,4.447679487978335,8.616248208330944
2.886321301460266,1.332206810116768,-2.136840986609459,3.8303674813572215,8.626320208190009
2.0216888451576236,1.4094228011369705,-1.1656710916757584,2.7262588859035572,8.636392208281904
0.8836024318635464,1.367914001941681,-0.3714630854129791,1.6703073962980013,8.64646420814097
-0.18793711245059969,1.2056449967622758,0.20378244560211897,1.237104482891303,8.656536208232865
-0.9280221942812205,0.9902745026350022,0.574304787106812,1.4736671171405478,8.66660820832476
-1.5413143515586853,0.7310206550359726,0.8500910156965256,1.9059632376774596,8.67668120819144
-1.84980877161026,0.5788842898607255,0.8448460632562638,2.114394566577729,8.686753208283335
-1.7676124146580696,0.6346684813499451,0.4409665989875794,1.929173209200006,8.6968252081424
-1.3131754387915135,0.843435714840889,-0.30853359639644623,1.5909137368882609,8.706897208234295
-0.7970649558305741,1.1388376343250275,-1.0584887782484294,1.747186937578825,8.71696920832619
-0.6199207071214915,1.2186725932359697,-1.2378064370155335,1.8443506575864534,8.727041208185256
-0.6759319898486138,1.1753377085924148,-1.0291772709041835,1.7022069906699824,8.737113208277151
-0.7853504978120327,1.0607047998905181,-0.7461169964075088,1.5161004746561337,8.747185208136216
-0.8895458342134953,0.9585632979869843,-0.5713098797947168,1.4270705540250352,8.757257208228111
-0.9152585995942355,0.7625564432144165,-0.7272113402187824,1.3957173662894005,8.767329208320007
-0.925718172043562,0.5537909638881684,-1.1054734218120577,1.5445743918855834,8.777401208179072
-0.9276492881029845,0.28637732684612277,-1.6226124300062656,1.8908771173876804,8.787473208270967
-0.8893772151321173,-0.029469382166862488,-2.0413631178438663,2.2268865382355445,8.797545208130032
-0.8164600239694119,-0.35478858053684237,-2.2738513357937338,2.4419012684607924,8.807617208221927
-0.9337788511812687,-0.6191096252202988,-2.3144140554964543,2.5713327461130686,8.817689208313823
-1.201548291295767,-0.822442456483841,-2.3030106693506243,2.724699622653066,8.827761208172888
-1.4487681305408477,-1.0288515079021454,-1.9279113467037678,2.6218899065621493,8.837833208264783
-1.8034494146704674,-1.3321296268701555,-1.342635903954506,2.6133637911029926,8.847905208123848
-2.1350165091454985,-1.6457666730880738,-0.8780734509229661,2.8351113596800714,8.857977208215743
-2.3109646368026735,-1.8383464747667313,-0.665594989657402,3.027059960439637,8.868049208307639
-2.40822839140892,-1.8183922666311265,-0.9100827173888684,3.151882766382942,8.878121208166704
-2.4207851408421996,-1.8214462673664094,-1.318361626714468,3.30392865870597,8.888193208258599
-2.461488924622536,-2.1079019469022753,-1.5556825684010984,3.594763774912178,8.898265208117664
-2.4085844868421558,-2.399804892539978,-1.6366912096738817,3.7734733162352243,8.90833720820956
-2.1806209905445577,-2.5174122798442844,-1.7432685555517675,3.7591831224203314,8.918409208301455
-2.0564764161407947,-2.6312353491783145,-2.004958791732788,3.8951706598627247,8.92848120816052
-2.1976741026341915,-3.0182070046663285,-2.3528119897842408,4.413056678049623,8.938553208252415
-2.3014605724811554,-3.5312311810255053,-2.9082097685337067,5.12093726561134,8.94862520834431
-2.272540828585625,-3.912256218194962,-3.6497904950380327,5.813016531205099,8.958697208203375
-2.3571422915160656,-3.8084324723482132,-3.966991419196129,5.983084371698736,8.96876920829527
-2.563260005414486,-3.215275129079819,-3.429036469459534,5.354118706185008,8.978841208154336
-2.6730426487326624,-2.4640774869918824,-2.3855037724971773,4.348271278616621,8.988913208246231
-2.1546438579261302,-1.2950875157117845,-1.1884594452381134,2.780679355989648,8.998985208338127
-0.8442433615028858,0.19867026150226594,-0.08547050535678864,0.87150555565241,9.009058208204806
0.5415997019782662,1.4976660561561586,0.4101190280914307,1.6445459769030322,9.019130208296701
1.5304275669157505,2.3325689291954044,0.44971169471740724,2.82583208195198,9.029202208155766
2.2249051706492904,2.0787126463651657,0.5503282427787781,3.0942059497293313,9.039274208247662
2.48294762134552,0.7303979265689851,0.7726602856814861,2.7010209067223165,9.049346208339557
3.0234013786911964,-1.470143212080002,0.7079025185108185,3.435608088302665,9.059418208198622
2.7099999752640724,-3.630178349018097,1.0374910613894464,4.6474382636108285,9.069490208290517
1.0505840004980564,-4.537135291099548,2.0968524634838106,5.107456670933352,9.079562208149582
-0.10249949768185616,-4.144222864508629,3.4047073745727543,5.364431153832737,9.089634083211422
-1.1725558226555586,-3.7067265880107882,4.73841399550438,6.129214986301372,9.099706083303317
-2.3578309473395347,-3.686807463169098,2.606437307596207,5.093665819931729,9.109778083162382
-3.058592846095562,-3.9750693476200105,0.10533378928899766,5.016698289088263,9.119850083254278
-3.91547130972147,-4.360990843176842,1.0173383402824403,5.948456439290185,9.129922083346173
-3.5961399525403976,-3.9337476593255998,2.448915364444256,5.865473524594415,9.139994083205238
-1.4096306696534158,-2.2321617114543915,3.2364704087376595,4.176642819004883,9.150066083297133
-0.21418550105765463,-0.07355738818645478,3.853858028948307,3.860506161827677,9.160138083156198
0.2860294906049967,1.4458866226673126,4.0244923532009125,4.285900103371129,9.170210083248094
1.0250204122066497,2.1222416585683823,4.09318310379982,4.723211240674685,9.18028208333999
0.8558133932948113,2.496883875131607,3.7048133790493014,4.548899627780076,9.190354083199054
0.7027796266973019,2.9547717314958573,3.3225732904672625,4.5015628907607494,9.20042608329095
0.6615034005045891,3.1089324027299883,3.0743712651729584,4.4220816489233625,9.210498083150014
0.7867748064547777,2.802123150229454,2.908186379671097,4.114420586671746,9.22057008324191
1.0532547162473203,2.470573743581772,2.840166304707527,3.9089160592380194,9.230642083333805
1.4768716031312943,2.214121881723404,2.8434790447354317,3.894721879301718,9.24071408319287
1.6669710159301758,2.0955385941267015,2.8842028552293777,3.935568634586251,9.250786083284765
1.6702396094799044,2.0563663423061374,3.060357828140259,4.047731824504245,9.26085808314383
1.6017424017190933,2.0775098741054534,3.3124646240472795,4.225405055617176,9.270930083235726
1.4714047488570214,2.391928693056107,3.5810877576470377,4.55088390706614,9.281002083327621
1.5740982279181481,2.7801148152351383,3.8762350308895113,5.023148577507933,9.291074083186686
1.4067276732623577,3.1757467818260197,4.273444576263428,5.506957319191402,9.301146083278582
1.4776134686172009,3.2472722625732424,4.175840513706207,5.492336725459085,9.311218083137646
1.5963169164955617,3.277320519089699,3.7816276663541797,5.252596052398435,9.321290083229542
1.4531557349860669,3.072875547409058,3.115763704776764,4.611096310422462,9.331363083329052
1.2241181782633066,2.6378245764970782,2.1437906947731973,3.6128136339593846,9.341435083188117
1.1078007598221302,2.107732377648354,0.9526874309778214,2.564638695877607,9.351507083280012
1.046166136711836,1.5531333285570146,-0.3154005664587021,1.8989903209862944,9.361579083139077
1.1624369966983796,1.165982748270035,-1.4906113904714584,2.220967775083589,9.371651083230972
1.2528375819325448,0.6155030626058579,-2.622145852446556,2.9705378129696403,9.381723083322868
1.0487986993789673,-0.19672606229782105,-3.56412118434906,3.720435414320744,9.391795083181933
0.5130913097038865,-1.0324633330106736,-4.01422990500927,4.176515887240929,9.401867083273828
0.4703307312726975,-1.5766748034954072,-4.300263123214245,4.604278158586113,9.411939083132893
0.16179896213114262,-2.0474013912677766,-4.649253019988537,5.082674985180979,9.422011083224788
-0.18484547026455403,-2.7564505487680435,-5.079280940294266,5.7819791028779735,9.432083083316684
-0.7921046897023917,-3.4455039829015734,-5.672864545583725,6.684333900111511,9.442155083175749
-1.7061827364563942,-3.33898817896843,-5.887232242226601,6.979928729104989,9.452227083267644
-2.2042605525255206,-2.4277949291467666,-5.341748417615891,6.267952533205141,9.462299083126709
-1.3508622054755688,-1.5091265988349916,-4.248768156766892,4.706837859906576,9.472371083218604
0.22867375027388334,-1.3607230961322785,-2.6778192391991618,3.0124035098633968,9.4824430833105
1.343575405329466,-1.8543339318037033,-0.7160626003146172,2.399269648875289,9.492515083169565
1.9592664559185506,-2.472264758348465,1.014098982810974,3.313489826089358,9.50258708326146
2.379733740091324,-2.6335397368669513,3.0946435618400576,4.709085154700901,9.512659083120525
3.617395458519459,-2.314330878853798,4.7983421087265015,6.439391610432719,9.52273108321242
5.057326399683952,-2.4939778089523315,5.587850707769395,7.938548428825376,9.532803083304316
5.9154614299535755,-2.505479282140732,5.84398915886879,8.684602446369137,9.54287508316338
5.242541048526764,-0.8197924983501435,4.943735464811326,7.252366285004676,9.552947083255276
3.8664669647812846,1.9351325118541718,3.734302057027817,5.713082922669881,9.563019083347172
3.1936804845929148,4.136942496299744,2.557259885072708,5.8183731725597045,9.573091083206236
3.0169021984934807,5.158958024382591,1.5747991628944875,6.180334875722311,9.583163083298132
1.549978609532118,4.793330460190774,2.1071318686008453,5.460627738847714,9.593235083157197
0.038760205842554574,3.6531310093402865,3.582870866060257,5.117013989410612,9.603307083249092
-1.4450779527425768,1.8083239459991456,4.600147225856781,5.149722350062616,9.613379083340988
-2.9560870626568794,-0.49289981424808504,4.733318731784821,5.6022948124458996,9.623451083200052
-4.5042081579566,-2.7887909138202667,4.505565004348755,6.954520968378876,9.633524083299562
-6.0097471976280215,-4.220563527345657,3.6851690733432774,8.216488846635405,9.643596083158627
-6.1623741441965105,-3.8456119930744173,1.8358783650398256,7.492265082440741,9.653668083250523
-3.8376749825477603,-1.5930511003732681,-0.7519590226560832,4.222677284830954,9.663740083342418
-1.8255752786993982,0.07800478041172028,-1.520770744085312,2.3772996235290282,9.673812083201483
0.2152403935790062,0.5349582517147065,-1.3578252160549165,1.4751942500770132,9.683884083293378
1.6564837422966958,0.6125209826231003,-1.6428769791126252,2.412087293433855,9.693956083152443
2.3443428826332093,0.6679859161376953,-1.4530541396141052,2.8378715735848568,9.704028083244339
2.8791385817527773,0.8674671864509583,-2.3350282680988315,3.8071374161339597,9.714100083336234
3.296444714963436,1.417915881872177,-2.521077899336815,4.385529270384619,9.724172083195299
2.4459907333552837,1.658591371178627,-1.7934205627441406,3.4568993793689784,9.734244083287194
1.0937843991816045,1.3190558373928072,-1.2220680713653564,2.1046907100815893,9.74431608314626
-0.026962461546063424,1.1307070809602737,-0.5112694269418717,1.241217911646378,9.754388083238155
-0.7578748700022698,0.9377173894643784,0.2635217668488622,1.2341523174584215,9.76446008333005
-1.123986218199134,0.8112187260389329,0.572006173543632,1.4995372295311138,9.774532083189115
-1.1560910866409542,0.7880035257339478,0.4179824367910624,1.4602073396081767,9.78460408328101
-0.9580390220135451,0.8009732347726822,0.060144971832633023,1.250205706337814,9.794676083140075
-0.7043910462409259,0.8272897982597351,-0.19461529053747656,1.1038343479163917,9.80474808323197
-0.5393478295952082,0.7688229042291642,-0.33868300974369053,0.9983440892024519,9.814820083323866
-0.44297709099948407,0.7783117657899857,-0.21957179166376592,0.9220681534528383,9.824892083182931
-0.6079799618571997,0.7879047077894211,-0.2920631593465805,1.0371761430075999,9.834964083274826
-0.6580176559835673,0.8934446114301682,-0.3001690082252026,1.1494920368487178,9.845036083133891
-0.5949774718657136,0.9122796624898911,-0.5640539968013764,1.2265436339274656,9.855108083225787
-0.4143232857808471,0.9176181703805923,-0.9003191828727722,1.3506522582817384,9.865180083317682
-0.20124796997755767,0.8673286074399948,-1.297426986694336,1.573555351586538,9.875252083176747
-0.03863620832562447,0.6683338254690171,-1.558061946630478,1.6957947660014125,9.885324083268642
-0.05307137578725815,0.17825470805168153,-1.6936676484346391,1.7038490001243254,9.895396083127707
-0.32711944643408064,-0.42992471694946294,-1.6776030081510545,1.762439856402732,9.905468083219603
-0.7596123701334,-0.8936796694993974,-1.6788456876575948,2.0479739127983874,9.915540083311498
-1.280595630258322,-1.1823181146383286,-1.6423656401038171,2.394820700643842,9.925613083178177
-1.9520333039760591,-1.5042377418279649,-1.6233713985979559,2.951016757247791,9.935685083270073
-2.3852122887969016,-1.9133685904741289,-1.5389066143333914,3.423222252977415,9.945757083129138
-2.492822106778622,-2.190878614783287,-1.4997799707949162,3.6419021295960903,9.955829083221033
-2.3350270986557007,-2.2006925815343856,-1.5873559123277665,3.579818177265272,9.965901083312929
-2.130848760008812,-2.1852693808078767,-1.594895312190056,3.443778413541346,9.975973083171993
-1.8868543910980227,-2.227533640265465,-1.5815934813022614,3.3201752290832496,9.986045083263889
-1.7918451766669752,-2.153286280632019,-1.8364396977424622,3.3496062017716652,9.996117083122954
-1.9468294282257559,-2.0796177953481676,-2.2176049219071867,3.61008678386013,10.00618908321485
-2.3778276939690115,-2.3492253077030183,-2.34108422935009,4.080882191079526,10.016261083306745
-2.7913636887073516,-3.0421595388650897,-2.2533103595674038,4.703600055178539,10.02633308316581
-2.8771455582976344,-3.7717797857522966,-2.4791615492105485,5.3526191068415745,10.036405083257705
-2.36186260253191,-4.20644776403904,-3.450241397023201,5.931000205914721,10.04647708311677
-1.9016390758752824,-3.93983051776886,-3.8479251515865327,5.8262358050332015,10.056549083208665
-1.8403014913201332,-3.1829411959648133,-3.154861696958542,4.844685393589676,10.06662108330056
-1.6177435997128486,-2.4102181988954547,-2.216142094731331,3.6520585845162596,10.076693083159626
-0.6002465075254441,-1.200563766360283,-0.9823883628845216,1.6633508717118621,10.086765208281577
0.8649289101362229,0.302976987361908,-0.012484974861145021,0.9165440246150839,10.096837208140641
1.907439806163311,1.6559086686372757,0.3432970841601491,2.549159277290704,10.106909208232537
2.6608550047874453,2.4913418841362,0.6963226195424795,3.7110374466771696,10.116981208324432
2.8795092952251435,2.100379503965378,1.141473559141159,3.7424764165167743,10.127053208183497
2.9020766240358356,0.26687452375888826,1.2134611161053181,3.1568589806176535,10.137125208275393
3.305937084853649,-2.11276273727417,1.2840767700970173,4.128176297655864,10.147197208134457
2.252220292389393,-3.557672290205956,1.9736856897175312,4.650264892642743,10.157269208226353
0.9562555481493473,-4.152030066847802,3.238820697069168,5.351984478409685,10.167341208318248
0.22592146586626768,-4.19453289270401,5.502363245487214,6.922510237045779,10.177413208177313
-1.2019198087602854,-4.354692222476006,3.431953645348549,5.673293699695492,10.187485208269209
-2.3489069268107414,-4.454455077052117,0.1462376940250397,5.0379479202795086,10.197558208135888
-3.499429636895657,-4.730307415723801,0.22431468755006792,5.888304773861993,10.207630208227783
-3.7161520072817806,-4.7589383071661,1.758860886991024,6.288948335963987,10.217702208319679
-1.7361929860711098,-3.8805602163076403,2.9411295926570893,5.16946389464859,10.227774208178744
0.13111562490463258,-1.9990367317199709,3.847907317578793,4.3381712606277105,10.23784620827064
0.47983081217855217,0.10215436577796937,4.266001070737839,4.294116702920382,10.247918208129704
1.0615410979092121,1.5086611604690552,4.283417002558709,4.663752696859811,10.2579902082216
1.1593256201595068,2.3104249387979507,3.9552519643306736,4.725052104762379,10.268062208313495
0.5195643967017531,2.8300079369544986,3.372266729772091,4.4329533025143935,10.27813420817256
0.20977507419884206,3.2068253177404404,3.1140536865592003,4.4749373809059225,10.288206208264455
0.4349213819950819,3.381513224244118,3.0522573879361152,4.576031409033919,10.29827820812352
0.8672989328205586,3.2872789120674133,3.0546591317653657,4.570487118007482,10.308350208215415
1.2978493018448354,2.9391760379076004,3.1005261531472206,4.465023070316574,10.318422208307311
1.6529224956035615,2.524807838201523,3.1829525980353357,4.386113842304603,10.328494208166376
1.9224001997709275,2.318834404349327,3.1972677513957026,4.392622974600521,10.338566208258271
2.033819917291403,2.476879380941391,3.2567441672086717,4.569216288856495,10.348638208117336
1.9674448102712632,2.8585207146406173,3.41907369107008,4.871554645332474,10.358710208209231
1.7899226121604443,3.2039163279533387,3.595062603056431,5.137448580175198,10.368782208301127
1.5220088919997217,3.550077926516533,3.829457013309002,5.439145646923572,10.378854208160192
1.2454779839515686,3.8195521223545077,3.8647084146738053,5.57459998155396,10.388926208252087
1.064208597689867,3.831947050094605,3.5573629724979403,5.335840088704416,10.398998208343983
1.0231349775195122,3.443470906019211,2.862901448607445,4.593528248227415,10.409070208203048
1.0199794545024634,2.8322275400161745,1.9579337292909622,3.5910131459420236,10.419142208294943
1.0197337983548642,2.1706256139278413,0.785415840446949,2.5235591171541523,10.429214208154008
0.888112243115902,1.4108957147598267,-0.5942285531759263,1.769880687422052,10.439286208245903
0.8497366744279862,0.5909044110774995,-2.1446341556310653,2.381318143465537,10.449359208345413
0.665671880543232,-0.4803265464305878,-3.6233958712220193,3.7152160480032217,10.459431208204478
0.34518043577671054,-1.6782578963041306,-4.446312829256058,4.7650180351555,10.469503208296373
0.3908863298222423,-2.372414195537567,-4.620202006101609,5.208397816528168,10.479575208155438
0.24472360806539656,-2.588235509991646,-4.464848795235158,5.166597280980888,10.489647208247334
-0.14495127003639938,-2.6761454737186434,-4.31331644743681,5.078135902367999,10.49971920833923
-0.4775485708191991,-2.7143400710821153,-4.2342694008350374,5.052200710365873,10.509791208198294
-1.0654639948904514,-2.7559862798452377,-4.305032697021962,5.221492164269836,10.51986320829019
-1.5351964098215103,-2.420318679213524,-4.017693503201008,4.935243824913045,10.529935208149254
-1.3408791080117226,-2.0594022166728974,-3.32020253688097,4.1307189638427815,10.54000720824115
-0.4013290184363723,-1.9001287400722504,-2.3003329369425773,3.0104959443039485,10.550079208333045
0.7704028218984604,-1.730498675107956,-1.0952010333538056,2.188061122546339,10.56015120819211
1.7047682949900629,-1.5360378241539003,0.01567960113286972,2.2947533607615567,10.570223208284006
2.434005987793207,-1.6640333747863771,1.121143959760666,3.154418488330924,10.58029520814307
2.903909433782101,-2.244688201546669,2.235979650914669,4.297780836789609,10.590367208234966
3.6702197894454005,-2.445240681767464,3.4121000093221667,5.576032798345396,10.600439208326861
4.729737312197686,-2.3259989976882935,4.385363499820232,6.856536983433947,10.610511208185926
4.692846936285496,-1.3763924646377563,5.016589432954788,7.00595733093982,10.620583208277822
4.5375448885560035,0.504500105381012,4.398429687917233,6.33955973956724,10.630655208136886
4.6506367635726935,2.438959602713585,3.7636892858147624,6.460828374946941,10.640727208228782
4.315289590358734,3.766216744780541,2.9524439549446106,6.44383722050866,10.650799208320677
4.106990134119988,4.492554364800453,2.503243306875229,6.581537794152834,10.660871208179742
2.9355773690342906,4.454142835736275,2.353650334328413,5.830666581704987,10.670943208271638
1.2660633990168573,3.744439959526062,2.7796599018573764,4.832210292487219,10.681015208130702
-0.20779089465737344,2.1000731098651886,3.2517161464691164,3.8764857822374785,10.691087208222598
-1.7857849761843683,-0.12954155445098878,3.0617716848850254,3.546865495879294,10.701159208314493
-3.5213368150591853,-2.0143394798040393,2.8170271182060245,4.938928860562431,10.711232208181173
-5.003870569467545,-3.507100306749344,2.8349476647377014,6.736126594667484,10.721304208273068
-5.507807003259659,-3.8624291700124744,2.3498497903347015,7.125734426405143,10.731376208132133
-4.870704618394375,-2.5787676984071735,1.405484701395035,5.687635147216461,10.741448208224028
-2.838244032561779,-0.5353020679950714,0.10154512245208025,2.890067283691879,10.751520208315924
-0.9983796937018633,0.9481915068626404,-0.5229457318782806,1.4728548417859724,10.761592208174989
0.21036359645426275,1.3732811611890794,-0.3815846157073975,1.4407500856618265,10.771664208266884
1.4665112140774728,1.1465156131982803,-0.5677330648899078,1.9461433722343533,10.781736208125949
1.8099051792919636,0.6612750667333603,-0.7258645802736283,2.0591068114128745,10.791808208217844
1.574959376603365,0.06941931366920472,-0.762692683339119,1.751289869861694,10.80188020830974
2.3525778087973594,0.2885583382844925,-2.2785517662763595,3.287808755484481,10.811952208168805
1.7700106501579285,0.6942913699150086,-2.1241244620084765,2.850768832808748,10.8220242082607
0.9983877336233855,0.5119377636909486,-1.462884478569031,1.8436076963879042,10.832096208119765
0.5486508958786727,0.5667472243309021,-1.1556705987453462,1.3992121907129307,10.84216820821166
0.14837675169110298,0.6972722804546356,-0.6529872963577509,0.9667454177483421,10.852240208303556
-0.20337544284760953,0.8121683138608933,-0.09192064203321934,0.8422756943097117,10.86231220816262
-0.5050403150171042,0.8507494121789932,0.21161716639995576,1.0117421149831733,10.872384208254516
-0.6854620742797852,0.7862487763166428,0.15856245517730713,1.0550769856874045,10.882456208346412
-0.7763815999031067,0.6744155144691467,-0.019884114637970924,1.0285912953353862,10.892528208205476
-0.8130780675262214,0.6967232269048691,-0.16219291828572752,1.0829707944090408,10.902600208297372
-0.9147445562481881,0.7488593405485153,-0.20676850900053978,1.2001254648688853,10.912672208156437
-1.097315825074911,0.7876608788967133,-0.33947011806070804,1.3927496692371988,10.922744208248332
-0.8967766472697258,0.7100770980119706,-0.629726414680481,1.305746222493393,10.932816208340228
-0.7575842633843423,0.7081755834817887,-0.6002364210784435,1.1982196519655428,10.942888208199292
-0.6114296729117632,0.6913572371006013,-0.6421850770711899,1.1243766039104925,10.952961208298802
-0.48751734260469676,0.633572713136673,-0.8271347008645535,1.1503214140169715,10.963033208157867
-0.3976128570735455,0.4692501658201218,-1.1057885867357256,1.265330036309655,10.973105208249763
-0.397627182751894,0.004688297510147095,-1.368796785324812,1.4253890683291672,10.983177208341658
-0.5952542278915643,-0.5585049891471863,-1.4579793955385685,1.6709157179642815,10.993249208200723
-1.0045818353444338,-1.0166132855415344,-1.5801090194284917,2.1305942245117473,11.003321208292618
-1.4700310917198658,-1.269443382024765,-1.8546954359114172,2.6855861689359766,11.013393208151683
-1.8104032158851624,-1.4910265427827836,-2.0739568135142328,3.13081727663756,11.023465208243579
-2.175868081301451,-1.716749532222748,-2.002048632502556,3.419039278879205,11.033537208335474
-2.5923683220148086,-1.8959737086296082,-1.7898777347803116,3.676785569796379,11.043609208194539
-2.698060837984085,-1.9477472949028016,-1.65642848610878,3.717123503444187,11.053681208286434
-2.276561812609434,-1.8448175883293152,-1.7497339680790902,3.4128660360305,11.0637532081455
-1.6692967459559442,-1.7933837252855303,-2.104598270058632,3.2298778135576427,11.073825208237395
-1.2205163665115835,-1.7573110824823381,-2.2847287648916246,3.1301418451343532,11.08389720832929
-1.1589428468048573,-1.8086753636598587,-2.3768855613470077,3.203754058134012,11.093969374895096
-1.4866890782117845,-1.8706377232074738,-2.480085409283638,3.443886401161141,11.104041374986991
-2.099639831185341,-2.15986966073513,-2.3591187965869906,3.8260901542533134,11.114113374846056
-2.7604798650741578,-2.825830686092377,-2.0302919997274875,4.441582348228905,11.124185374937952
-2.8988805359601977,-3.4986048871278763,-2.1277335096895698,5.017070301107992,11.134257374797016
-2.4322157165408136,-3.753047060966492,-2.9988597375154495,5.384625823481944,11.144329374888912
-1.8552753335237504,-3.4691606479883195,-3.565450841188431,5.30938432077239,11.154401374980807
-1.5774627158045769,-2.7776285791397095,-3.0753775709867477,4.434135355121174,11.164473374839872
-1.429725795686245,-2.078554186820984,-2.2123729795217515,3.3554578761950897,11.174546374939382
-0.7390887893736363,-1.1065411233901978,-1.332026715874672,1.8828119046084482,11.184618374798447
0.24026552639901638,0.05006795346736908,-0.09984826046973468,0.2649603711105475,11.194690374890342
1.0427742400020361,1.1283044600486756,0.49073342084884647,1.6128448036049743,11.204762374982238
1.8967971427738668,1.7819687908887865,0.5819383271411062,2.6668154021477637,11.214834374841303
2.5662645971775055,1.5586010599136353,0.8502331030368805,3.120552447274401,11.224906374933198
3.065800708830357,0.20936774253845217,1.0140087895095349,3.235920682446181,11.234978374792263
3.761735146343708,-1.94744733273983,0.9564078681170941,4.342570487076667,11.245050374884158
2.869530729353428,-3.4669217491149906,1.6504280734062196,4.793502461319648,11.255122374976054
0.5158018961548806,-3.9470044666528703,3.0946233889460566,5.0419827226267495,11.265194374835119
-0.4045709340646863,-3.5728838217258456,5.028854552507401,6.182115702129383,11.275266374927014
-0.6996213993430138,-3.4668317019939425,4.280257459580898,5.552386520467286,11.285338374786079
-1.8725681814551354,-3.727508761882782,1.602057859003544,4.4684922006988135,11.295410374877974
-3.1136443814635277,-4.2095923966169355,0.9420846748352051,5.32005385446744,11.30548237496987
-3.671050386428833,-4.340661243796349,1.593333813250065,5.9039532191186055,11.315554374828935
-2.847053447663784,-3.8591290014982227,2.2145466819405555,5.282310762398671,11.32562637492083
-0.7897734048217535,-2.304291209578514,3.037105498015881,3.893264673199454,11.335698375012726
0.46436094336211686,-0.2566383880376816,3.7091064047813416,3.746860641914068,11.34577037487179
0.9213592920452357,1.2521151584386827,3.6630531495809557,3.979278036489155,11.355842374963686
1.4355145391821862,2.040419231057167,3.5102215504646304,4.306468154302047,11.36591437482275
1.1772149571776391,2.3788648438453674,3.166576008796692,4.1318321142288665,11.375986374914646
0.6439456737041473,2.6721430546045304,2.823066707253456,3.940142150805779,11.386058375006542
0.491492279805243,2.7948316723108295,2.733803697824478,3.9403466085991337,11.396130374865606
0.5490582275390625,2.648580529689789,2.777185360193253,3.876751511813971,11.406203374965116
0.7662593387067318,2.461353853940964,2.95461151778698,3.921115324688219,11.416275374824181
1.1102641186863185,2.2296286976337436,3.083947834968567,3.964172649035554,11.426347374916077
1.4436288665235044,2.105845481157303,3.273704600930214,4.1516010536806425,11.436419375007972
1.581959663182497,2.1537593203783034,3.5402695146203045,4.435626654961255,11.446491374867037
1.6970099169015884,2.3514601135253907,3.7172518685460094,4.714569840162724,11.456563374958932
1.5215824837982654,2.6645381659269334,3.7518489664793018,4.8467873442059295,11.466635374817997
1.2722940458357335,2.9227827841043474,3.78716556429863,4.950152962640163,11.476707374909893
1.0141475877910853,3.2322449183464053,3.877573166191578,5.148929617033779,11.486779375001788
0.9370369197428227,3.530514312386513,3.732198813557625,5.222248316850519,11.496851374860853
0.8719501005113125,3.5622722947597505,3.2589485675096515,4.90620287447103,11.506923374952748
0.8471269159018994,3.312771602869034,2.3984424912929536,4.176674046231102,11.516995374811813
0.9803282426297665,2.6847081363201144,1.3872723788022996,3.1769837729375925,11.527067374903709
1.0689206495136023,2.161528515815735,0.2245266491174698,2.421819377204889,11.537139374995604
1.2651372000575065,1.641316357254982,-0.9383670151233674,2.2748679466363866,11.547211374854669
1.415648770183325,0.9085941624641419,-2.0769818705320358,2.6727249172154304,11.557283374946564
1.314227791428566,-0.169235377907753,-3.110006536245346,3.3805289462431114,11.56735537480563
0.9673246197402477,-1.3165175610780717,-3.7331560027599338,4.074971061188667,11.577427374897525
0.8802959045022727,-2.0155802589654925,-4.071357786655426,4.627465708870747,11.58749937498942
0.7623583687841893,-2.2295550227165224,-4.127893052995205,4.7530629007769125,11.597571374848485
0.6458117394894362,-2.312198399305344,-4.042814311087132,4.701880665706382,11.60764337494038
0.290371377132833,-2.437518264055252,-4.112197079658508,4.789151871282943,11.617715374799445
-0.367679461799562,-2.634073587656021,-4.365411630570889,5.111785456779252,11.62778737489134
-1.1989751509577036,-2.5835396111011506,-4.348173454105854,5.197964093925002,11.63786037499085
-1.533789569735527,-2.421108053326607,-3.73867226600647,4.710832724977442,11.647932374849916
-1.0826010145246983,-2.346770646572113,-2.6175829777121544,3.6784640910943835,11.658004374941811
-0.06429600158706308,-2.1912083977460863,-1.5385190901160242,2.678165269139396,11.668076374800876
0.8365253292024136,-2.097659963965416,-0.7088412889838219,2.3669406253197063,11.678148374892771
1.5463704389333726,-2.2032934230566026,0.4131794607639313,2.723321631627202,11.688220374984667
2.160005169957876,-2.592869428396225,1.8808653804659845,3.863450373227534,11.698292374843732
3.3978877669572833,-2.4214232182502746,3.545334665179253,5.4752469868345806,11.708364374935627
4.178843058943749,-1.9964230263233185,4.555897544324398,6.496509574048005,11.718436374794692
4.193144178986549,-0.9671364855766297,5.19945583999157,6.749233446808959,11.728508374886587
4.019673662781716,1.214561415910721,5.09202553153038,6.600125741380787,11.738580374978483
3.5452492958307267,3.5133971732854845,4.731807811260223,6.877700010144522,11.748652374837548
2.9592729181051256,4.828890302181244,4.259075920879841,7.086268796351784,11.758724374929443
2.4538571387529373,4.91089106976986,3.673265311717987,6.605387498612383,11.768796374788508
1.3441079404950143,3.9844699162244797,3.204474152326584,5.286897129879571,11.778868374880403
-0.06790097448974848,2.7679198622703556,3.6190581142902376,4.556706325943928,11.788940374972299
-1.976094157844782,0.9005051243305207,3.963277852535248,4.519228798811829,11.799012374831364
-3.7906238999962807,-1.4375753903388977,4.186938529014587,5.828027693815283,11.809084374923259
-5.2941795641183855,-3.4545320838689806,4.004469440281391,7.483174772364765,11.819156374782324
-6.21358113527298,-4.149088917374611,3.386269934177399,8.203069756866322,11.82922837487422
-5.815115607976914,-3.323025864958763,2.000263477563858,6.989930215173647,11.839300374966115
-3.9824801087379456,-1.4634808945655824,-0.040310631617903714,4.243058931039411,11.849373374832794
-1.7467866790294648,-0.05318218052387238,-1.161746952161193,2.098510907099575,11.85944537492469
-0.040792990364134314,0.5119716775417328,-1.4003613710403444,1.491573342537918,11.869517374783754
0.9687682972848416,0.5450715959072113,-1.2312283194065095,1.6587761250384523,11.87958937487565
1.3899451410770416,0.3674086260795593,-1.1617435169219972,1.8484005498894545,11.889661374967545
1.6312793192267419,0.2629679989814758,-1.5442730426788331,2.26163737503821,11.89973337482661
2.291664585918188,0.7255388903617859,-2.2687980258464813,3.3053861707618797,11.909805374918506
2.01050019800663,0.935131750702858,-2.16481231212616,3.09886992048558,11.919877375010401
1.1906038384884596,0.9625844281911851,-1.6213580560684204,2.230001844752056,11.929949374869466
0.16945008035749198,0.9720200800895692,-0.9347160136699677,1.3591285413976002,11.940021374961361
-0.4677229827269912,0.9569944900274278,-0.18799324572086334,1.0816398212670217,11.950093374820426
-0.6992913240194321,0.9666798180341721,0.36592226386070253,1.2479492496221039,11.960165374912322
-0.6901386773586273,0.92867467045784,0.6541660219430924,1.3291580875882085,11.970237375004217
-0.514755281098187,0.8519738191366196,0.6534678643941879,1.1907361746871603,11.980309374863282
-0.36753028471022847,0.8330393654108048,0.4486919403076172,1.0150652943531429,11.990381374955177
-0.2976898253336549,0.7754951620101929,0.30250215690582993,0.8840359344173044,12.000453374814242
-0.28009661324322227,0.7519186037778854,-0.36993696212768556,0.8835661013222884,12.010525374906138
-0.22208233024924995,0.9616167140007019,-0.33224643129855397,1.041352465385793,12.020597374998033
-0.4536390867456794,0.9653671181201935,-0.17759981989860535,1.081325015801983,12.030669374857098
-0.6244674289226533,0.9139589828252793,-0.11233144462108613,1.1126090712927648,12.040741374948993
-0.7123412860929966,0.8674590003490449,-0.2741847858577967,1.1554620383011613,12.050814374815673
-0.7992885057628155,0.7668295884132386,-0.602482482790947,1.2609024050974424,12.060886374907568
-0.8249326394498349,0.5354868400096894,-0.9636924755573273,1.3769397963959948,12.070958374999464
-0.918831467628479,0.2636667412519455,-1.2182083974033595,1.548484134839872,12.081030374858528
-1.0736905156821013,-0.034935944080352783,-1.288869001865387,1.6778602884698002,12.091101958183572
-1.2879995208978654,-0.33461276292800907,-1.3208135104179384,1.8749551451301452,12.101173958275467
-1.5130496419966222,-0.6006628292798997,-1.332550626397133,2.10376002089973,12.111245958134532
-1.64809328019619,-0.7586586892604829,-1.139509479403496,2.1424883478489907,12.121317958226427
-1.7330701343715191,-0.8498658978939057,-0.7860200040042401,2.0841380908539517,12.131389958318323
-1.7983816328644753,-0.9606963622570038,-0.4256702828407288,2.0828608180989536,12.141461958177388
-1.6848275354504587,-1.0711707311868668,-0.22971663773059847,2.00968163976629,12.151533958269283
-1.4538876602053643,-1.12959552526474,-0.2816049756109715,1.862545768963654,12.161605958128348
-1.362223930209875,-1.1850347310304643,-0.5188037104904651,1.878594857813562,12.171677958220243
-1.4642489263415337,-1.3385557168722153,-0.7021741475164891,2.104472584498105,12.181749958312139
-1.681157822906971,-1.4489996802806855,-0.8526867409050465,2.3775967650318894,12.191821958171204
-1.756876195818186,-1.5821191459894182,-0.9590281516313554,2.5513623723729095,12.2018939582631
-1.5969449074566364,-1.6348358881473541,-1.1218323232233525,2.545865114269595,12.211965958122164
-1.4607929295301438,-1.7263787269592286,-1.4328568334877492,2.6771959579259725,12.22203795821406
-1.5639166174829007,-2.0907520633935928,-1.6243559235334397,3.0749978119247334,12.232109958305955
-1.8738867285847665,-2.620905073285103,-1.830486208945513,3.7055734557389934,12.24218195816502
-2.184853059053421,-3.0872544354200366,-2.267951641380787,4.410025792024077,12.25225495826453
-2.4868716877698898,-3.140384575724602,-2.7000962537527085,4.830845252583637,12.262326958123595
-3.0376636147499085,-2.7716644191741944,-2.4484882253408435,4.78587698113151,12.27239895821549
-3.62556694239378,-2.5245558232069016,-1.9175857485830785,4.8161450208061,12.282470958307385
-3.8069414323568345,-2.3299867987632754,-1.4268779093027115,4.685896085047376,12.29254295816645
-3.1361552846431735,-1.7554914289712906,-0.982209438085556,3.725849635566539,12.302614958258346
-1.8056715027987957,-0.9841507136821748,-0.5391741307452321,2.1259611818012276,12.31268695811741
-0.3302165338397026,-0.12412878692150117,-0.043690395355224614,0.3554711881573621,12.322758958209306
0.7609660005569459,0.7065477186441422,0.06351947307586671,1.0403430473573183,12.332830958301201
1.2877980843186378,1.4348289531469345,0.5004374599456788,1.9918824468528167,12.342902958160266
1.6476573702692987,1.8567096555233003,0.9319736695289612,2.651550579455627,12.352974958252162
2.0155442985892296,1.7552592945098877,0.9077861503511667,2.822663583445305,12.363046958344057
2.315897055566311,1.016043182015419,0.7584562294185162,2.640261118079892,12.373118958203122
2.2101051369309426,-0.22399279832839966,0.524606341123581,2.28253133672653,12.383190958295017
1.3206348779797554,-1.650246809720993,0.8371948353946209,2.2733865061494374,12.393262958154082
0.3492009081691504,-2.5184595161676406,1.5580001123249532,2.981936276791654,12.403334958245978
-0.013613048940896988,-2.8068050158023836,2.6741188287734987,3.8767578235215874,12.413406958337873
0.16479456380009652,-3.38730430662632,3.888565931618214,5.159644631027326,12.423478958196938
-0.14014759965240955,-4.122225054502487,3.1078573921322823,5.164412679045666,12.433550958288833
-1.0612995348125698,-4.268311305642128,2.438211451470852,5.02888786776454,12.443623958155513
-2.3005399283766748,-4.1205112355947495,2.4553674745559695,5.319767498662445,12.453695958247408
-3.040068282186985,-3.4047909897565845,2.6917478916049005,5.2990681781089,12.463767958339304
-2.8800323286652567,-2.3207634007930755,2.9745692342519763,4.746429300640224,12.473839958198369
-1.8973758709430695,-1.0480110794305801,3.4428171873092652,4.068335360252188,12.483911958290264
-1.0027044405788184,0.2313427484035492,3.91216909468174,4.045244453401837,12.493983958149329
-0.5029397027939558,1.0844468343257905,3.8288717070221905,4.011138470554305,12.504055958241224
-0.05029811449348927,1.4669535559415818,3.414092155694962,3.7162491686092745,12.51412795833312
0.30066996842622756,1.6250002866983415,2.8867230051755906,3.326288933675653,12.524199958192185
0.6267563945800066,1.8418828707933428,2.3433044171333313,3.045723506693514,12.53427195828408
0.805630615130067,1.9023343098163605,1.9578305259346962,2.8462285366113993,12.544343958143145
1.0126482155174017,1.7484619063138962,1.8186618232727052,2.7184749904405967,12.55441595823504
1.3397389009594918,1.5942287296056747,1.8422731724381447,2.7803661641822606,12.564487958326936
1.5449621370434763,1.4865703797340393,1.9734168639779093,2.9139618422060636,12.574559958186
1.5566245548427107,1.4465035039186478,2.173472623229027,3.039643998154103,12.584631958277896
1.5663582685589792,1.4912920063734056,2.457031592130661,3.2732910531274837,12.59470395813696
1.5134430134296417,1.656534905433655,2.724448152780533,3.529480894552107,12.604775958228856
1.397777632623911,1.8363011187314988,2.894833093285561,3.7021402927090037,12.614847958320752
1.2774400341510774,2.0324752038717273,2.993767397403717,3.8373756299016066,12.624919958179817
